trial_type,trial_index,time_elapsed,internal_node_id,PIS,consent,participantAge,participantGender,participantHandedness,startTime,ageRT,genderRT,handednessRT,totalRT,stimulus,feedback,number,start_time,response_time,end_time,delta_response_time,button,button_label,correct,incorrect,distribution_mean,distribution_variance,distribution_std,distribution_name,spaceship_class,drop_location,boundary,distance_to_bound,confidence_response_time,delta_confidence_response_time,confidence,block,coins,sliderMove,sliderStartValue,feedback_strategy,feedback_technical,feedback_comments,PID,confidenceRT,binnedConfidence,flippedLocation,recentredFlipLocation,distanceBin,binnedLocation,rawLocation,stimulustype,distributiontype
jspsych-experimentscreen,95,616289,0.0-95.0,NA,NA,NA,NA,NA,NA,NA,NA,NA,NA,blue1,NA,NA,608002.310000011,610949.0050000022,618385.66,2946.6949999914505,1,Zap,1,0,278,19600,140,wide,blue1,286,450,164,618385.320000001,7436.31499999901,99,1,0,63,36,NA,NA,NA,1,7436.31499999901,5,614,514,5,10,614,1,0
jspsych-experimentscreen,96,626363,0.0-96.0,NA,NA,NA,NA,NA,NA,NA,NA,NA,NA,blue1,NA,NA,618392.920000013,620641.3450000109,628459.28000001,2248.424999997951,1,Zap,1,0,278,19600,140,wide,blue1,306,450,144,628458.935000002,7817.58999999147,98,1,0,34,64,NA,NA,NA,1,7817.58999999147,5,594,494,5,10,594,1,0
jspsych-experimentscreen,97,632485,0.0-97.0,NA,NA,NA,NA,NA,NA,NA,NA,NA,NA,blue1,NA,NA,628472.670000017,630583.2950000186,634581.350000022,2110.625000001164,1,Zap,1,0,278,19600,140,wide,blue1,302,450,148,634580.985000008,3997.68999998923,98,1,0,39,59,NA,NA,NA,1,3997.68999998923,5,598,498,5,10,598,1,0
jspsych-experimentscreen,98,639326,0.0-98.0,NA,NA,NA,NA,NA,NA,NA,NA,NA,NA,orange1,NA,NA,634588.640000002,637389.8000000045,641422.515000013,2801.16000000271,0,Retrieve,1,0,578,6400,80,narrow,orange1,531,450,81,641422.160000016,4032.36000001198,67,1,3,39,28,NA,NA,NA,1,4032.36000001198,3,369,269,3,4,369,0,1
jspsych-experimentscreen,99,645987,0.0-99.0,NA,NA,NA,NA,NA,NA,NA,NA,NA,NA,orange1,NA,NA,641429.230000009,644046.6750000196,648083.855000004,2617.4450000107754,1,Zap,0,1,578,6400,80,narrow,orange1,448,450,2,648083.460000023,4036.78500000387,81,1,0,16,65,NA,NA,NA,1,4036.78500000387,4,452,352,1,6,452,0,1
jspsych-experimentscreen,100,652104,0.0-100.0,NA,NA,NA,NA,NA,NA,NA,NA,NA,NA,blue1,NA,NA,648099.390000018,650376.425000024,654201.085000008,2277.0350000064354,1,Zap,1,0,278,19600,140,wide,blue1,358,450,92,654200.650000013,3824.22499998938,99,1,0,70,29,NA,NA,NA,1,3824.22499998938,5,542,442,3,8,542,1,0
jspsych-experimentscreen,101,657963,0.0-101.0,NA,NA,NA,NA,NA,NA,NA,NA,NA,NA,blue1,NA,NA,654207.844999997,656239.900000015,660059.985,2032.0550000178628,1,Zap,1,0,278,19600,140,wide,blue1,256,450,194,660059.690000024,3819.79000000865,97,1,0,53,44,NA,NA,NA,1,3819.79000000865,4,644,544,6,11,644,1,0
jspsych-experimentscreen,102,663738,0.0-102.0,NA,NA,NA,NA,NA,NA,NA,NA,NA,NA,blue1,NA,NA,660066.970000014,662173.0950000056,665834.540000011,2106.1249999911524,1,Zap,1,0,278,19600,140,wide,blue1,277,450,173,665834.260000003,3661.16499999771,99,1,0,45,54,NA,NA,NA,1,3661.16499999771,5,623,523,5,10,623,1,0
jspsych-experimentscreen,103,669742,0.0-103.0,NA,NA,NA,NA,NA,NA,NA,NA,NA,NA,blue1,NA,NA,665851.055000006,667802.4100000039,671838.790000009,1951.3549999974202,1,Zap,1,0,278,19600,140,wide,blue1,337,450,113,671838.455000019,4036.04500001529,100,1,0,-92,8,NA,NA,NA,1,4036.04500001529,5,563,463,4,9,563,1,0
jspsych-experimentscreen,104,675482,0.0-104.0,NA,NA,NA,NA,NA,NA,NA,NA,NA,NA,orange1,NA,NA,671850.505000009,673946.9050000189,677578.565000003,2096.400000009453,0,Retrieve,1,0,578,6400,80,narrow,orange1,580,450,130,677578.210000007,3631.30499998806,80,1,3,6,86,NA,NA,NA,1,3631.30499998806,3,320,220,4,3,320,0,1
jspsych-experimentscreen,105,681052,0.0-105.0,NA,NA,NA,NA,NA,NA,NA,NA,NA,NA,blue1,NA,NA,677594.695000007,679943.8450000016,683148.650000017,2349.1499999945518,1,Zap,1,0,278,19600,140,wide,blue1,324,450,126,683148.350000003,3204.50500000152,100,1,0,-78,22,NA,NA,NA,1,3204.50500000152,5,576,476,4,9,576,1,0
jspsych-experimentscreen,106,687037,0.0-106.0,NA,NA,NA,NA,NA,NA,NA,NA,NA,NA,blue1,NA,NA,683163.555000006,685601.5750000079,689133.395000012,2438.0200000014156,1,Zap,1,0,278,19600,140,wide,blue1,430,450,20,689132.754999999,3531.17999999085,90,1,0,6,84,NA,NA,NA,1,3531.17999999085,4,470,370,1,6,470,1,0
jspsych-experimentscreen,107,692824,0.0-107.0,NA,NA,NA,NA,NA,NA,NA,NA,NA,NA,blue1,NA,NA,689140.665000014,691229.2550000129,694920.935000002,2088.5899999993853,1,Zap,1,0,278,19600,140,wide,blue1,318,450,132,694920.610000001,3691.35499998811,96,1,0,44,52,NA,NA,NA,1,3691.35499998811,4,582,482,4,9,582,1,0
jspsych-experimentscreen,108,699566,0.0-108.0,NA,NA,NA,NA,NA,NA,NA,NA,NA,NA,blue1,NA,NA,694937.720000016,698020.4000000085,701662.380000023,3082.6799999922514,1,Zap,1,0,278,19600,140,wide,blue1,462,450,12,701661.590000003,3641.18999999482,64,1,0,5,69,NA,NA,NA,1,3641.18999999482,2,438,338,1,6,438,1,0
jspsych-experimentscreen,109,705192,0.0-109.0,NA,NA,NA,NA,NA,NA,NA,NA,NA,NA,orange1,NA,NA,701684.555000014,704046.3350000209,707288.425000006,2361.780000006547,0,Retrieve,1,0,578,6400,80,narrow,orange1,629,450,179,707287.995000021,3241.65999999968,94,1,3,8,86,NA,NA,NA,1,3241.65999999968,4,271,171,5,2,271,0,1
jspsych-experimentscreen,110,712026,0.0-110.0,NA,NA,NA,NA,NA,NA,NA,NA,NA,NA,orange1,NA,NA,707304.255000025,709645.835000003,714122.310000006,2341.5799999784213,0,Retrieve,1,0,578,6400,80,narrow,orange1,575,450,125,714119.655000017,4473.8200000138,81,1,3,24,57,NA,NA,NA,1,4473.8200000138,4,325,225,4,3,325,0,1
jspsych-experimentscreen,111,717455,0.0-111.0,NA,NA,NA,NA,NA,NA,NA,NA,NA,NA,orange1,NA,NA,714131.235000008,716375.5150000216,719551.520000008,2244.280000013532,0,Retrieve,1,0,578,6400,80,narrow,orange1,585,450,135,719551.124999998,3175.60999997659,83,1,3,6,77,NA,NA,NA,1,3175.60999997659,4,315,215,4,3,315,0,1
jspsych-experimentscreen,112,722942,0.0-112.0,NA,NA,NA,NA,NA,NA,NA,NA,NA,NA,orange1,NA,NA,719570.110000001,721767.130000022,725037.990000012,2197.020000021439,0,Retrieve,1,0,578,6400,80,narrow,orange1,658,450,208,725037.635000015,3270.50499999314,90,1,3,62,28,NA,NA,NA,1,3270.50499999314,4,242,142,6,1,242,0,1
jspsych-experimentscreen,113,728211,0.0-113.0,NA,NA,NA,NA,NA,NA,NA,NA,NA,NA,orange1,NA,NA,725053.670000023,727146.6400000209,730307.115000003,2092.9699999978766,0,Retrieve,1,0,578,6400,80,narrow,orange1,621,450,171,730306.770000025,3160.13000000385,81,1,3,22,59,NA,NA,NA,1,3160.13000000385,4,279,179,5,2,279,0,1
jspsych-experimentscreen,114,734676,0.0-114.0,NA,NA,NA,NA,NA,NA,NA,NA,NA,NA,blue1,NA,NA,730323.520000005,732565.6050000107,736772.70500001,2242.085000005318,1,Zap,1,0,278,19600,140,wide,blue1,443,450,7,736769.705000013,4204.10000000265,86,1,0,37,49,NA,NA,NA,1,4204.10000000265,4,457,357,1,6,457,1,0
jspsych-experimentscreen,115,740492,0.0-115.0,NA,NA,NA,NA,NA,NA,NA,NA,NA,NA,orange1,NA,NA,736780.805000017,739098.1900000188,742588.570000022,2317.385000002105,1,Zap,0,1,578,6400,80,narrow,orange1,464,450,14,742588.199999998,3490.00999997952,78,1,0,14,92,NA,NA,NA,1,3490.00999997952,3,436,336,1,6,436,0,1
jspsych-experimentscreen,116,745573,0.0-116.0,NA,NA,NA,NA,NA,NA,NA,NA,NA,NA,orange1,NA,NA,742604.74000001,744611.0850000114,747669.110000017,2006.3450000016019,0,Retrieve,1,0,578,6400,80,narrow,orange1,618,450,168,747668.845000007,3057.75999999605,97,1,3,4,93,NA,NA,NA,1,3057.75999999605,4,282,182,5,2,282,0,1
jspsych-experimentscreen,117,752545,0.0-117.0,NA,NA,NA,NA,NA,NA,NA,NA,NA,NA,blue1,NA,NA,747679.775000026,751417.145000014,754641.700000007,3737.3699999880046,1,Zap,1,0,278,19600,140,wide,blue1,452,450,2,754641.115000006,3223.96999999182,61,1,0,24,85,NA,NA,NA,1,3223.96999999182,2,448,348,1,6,448,1,0
jspsych-experimentscreen,118,758042,0.0-118.0,NA,NA,NA,NA,NA,NA,NA,NA,NA,NA,blue1,NA,NA,754665.775000001,756837.8749999974,760138.810000004,2172.099999996135,1,Zap,1,0,278,19600,140,wide,blue1,150,450,300,760138.485000003,3300.61000000569,99,1,0,91,8,NA,NA,NA,1,3300.61000000569,5,750,650,6,11,750,1,0
jspsych-experimentscreen,119,764295,0.0-119.0,NA,NA,NA,NA,NA,NA,NA,NA,NA,NA,orange1,NA,NA,760149.990000005,762712.6150000258,766391.190000024,2562.625000020489,0,Retrieve,1,0,578,6400,80,narrow,orange1,540,450,90,766390.780000016,3678.16499999026,65,1,3,7,58,NA,NA,NA,1,3678.16499999026,3,360,260,3,4,360,0,1
jspsych-experimentscreen,120,770093,0.0-120.0,NA,NA,NA,NA,NA,NA,NA,NA,NA,NA,orange1,NA,NA,766406.110000011,768380.4400000081,772189.465000003,1974.3299999972805,0,Retrieve,1,0,578,6400,80,narrow,orange1,548,450,98,772188.970000017,3808.53000000934,78,1,3,17,95,NA,NA,NA,1,3808.53000000934,3,352,252,3,4,352,0,1
jspsych-experimentscreen,121,776077,0.0-121.0,NA,NA,NA,NA,NA,NA,NA,NA,NA,NA,orange1,NA,NA,772197.42500002,774488.3850000042,778173.370000004,2290.9599999838974,0,Retrieve,1,0,578,6400,80,narrow,orange1,491,450,41,778173.060000001,3684.67499999679,63,1,3,2,61,NA,NA,NA,1,3684.67499999679,2,409,309,2,5,409,0,1
jspsych-experimentscreen,122,781964,0.0-122.0,NA,NA,NA,NA,NA,NA,NA,NA,NA,NA,orange1,NA,NA,778184.815000015,779866.4400000125,784060.480000015,1681.6249999974389,0,Retrieve,1,0,578,6400,80,narrow,orange1,516,450,66,784060.005000007,4193.56499999412,71,1,3,47,24,NA,NA,NA,1,4193.56499999412,3,384,284,3,4,384,0,1
jspsych-experimentscreen,123,788088,0.0-123.0,NA,NA,NA,NA,NA,NA,NA,NA,NA,NA,blue1,NA,NA,784075.890000007,786619.6000000054,790184.690000024,2543.7099999981,1,Zap,1,0,278,19600,140,wide,blue1,430,450,20,790184.375000012,3564.77500000619,83,1,0,43,40,NA,NA,NA,1,3564.77500000619,4,470,370,1,6,470,1,0
jspsych-experimentscreen,124,794265,0.0-124.0,NA,NA,NA,NA,NA,NA,NA,NA,NA,NA,orange1,NA,NA,790195.51000002,792065.9100000048,796361.930000014,1870.3999999852385,0,Retrieve,1,0,578,6400,80,narrow,orange1,619,450,169,796361.580000026,4295.67000002135,83,1,3,12,95,NA,NA,NA,1,4295.67000002135,4,281,181,5,2,281,0,1
jspsych-experimentscreen,125,799405,0.0-125.0,NA,NA,NA,NA,NA,NA,NA,NA,NA,NA,orange1,NA,NA,796369.440000009,798557.6450000226,801502.095000003,2188.205000013113,0,Retrieve,1,0,578,6400,80,narrow,orange1,525,450,75,801501.790000009,2944.14499998675,71,1,3,67,4,NA,NA,NA,1,2944.14499998675,3,375,275,3,4,375,0,1
jspsych-experimentscreen,126,804982,0.0-126.0,NA,NA,NA,NA,NA,NA,NA,NA,NA,NA,orange1,NA,NA,801510.425000015,803643.5750000237,807079.340000026,2133.1500000087544,0,Retrieve,1,0,578,6400,80,narrow,orange1,787,450,337,807078.970000002,3435.3949999786,97,1,3,89,8,NA,NA,NA,1,3435.3949999786,4,113,13,6,1,113,0,1
jspsych-experimentscreen,127,809974,0.0-127.0,NA,NA,NA,NA,NA,NA,NA,NA,NA,NA,blue1,NA,NA,807093.310000026,809140.2550000057,812071.130000026,2046.9449999800418,1,Zap,1,0,278,19600,140,wide,blue1,271,450,179,812070.775,2930.51999999443,97,1,0,81,16,NA,NA,NA,1,2930.51999999443,4,629,529,5,10,629,1,0
jspsych-experimentscreen,128,815205,0.0-128.0,NA,NA,NA,NA,NA,NA,NA,NA,NA,NA,blue1,NA,NA,812080.379999999,813962.8950000042,817301.850000018,1882.515000004787,1,Zap,1,0,278,19600,140,wide,blue1,112,450,338,817301.555000013,3338.66000000853,96,1,0,70,26,NA,NA,NA,1,3338.66000000853,4,788,688,6,11,788,1,0
jspsych-experimentscreen,129,820732,0.0-129.0,NA,NA,NA,NA,NA,NA,NA,NA,NA,NA,blue1,NA,NA,817313.145000022,819816.0400000052,822829.194999998,2502.894999983255,1,Zap,1,0,278,19600,140,wide,blue1,362,450,88,822828.880000015,3012.84000001033,99,1,0,36,63,NA,NA,NA,1,3012.84000001033,5,538,438,3,8,538,1,0
jspsych-experimentscreen,130,827650,0.0-130.0,NA,NA,NA,NA,NA,NA,NA,NA,NA,NA,orange1,NA,NA,822838.160000014,826180.2750000206,829747.010000021,3342.115000006743,0,Retrieve,1,0,578,6400,80,narrow,orange1,473,450,23,829746.350000001,3566.07499998063,61,1,3,7,54,NA,NA,NA,1,3566.07499998063,2,427,327,2,5,427,0,1
jspsych-experimentscreen,131,833211,0.0-131.0,NA,NA,NA,NA,NA,NA,NA,NA,NA,NA,orange1,NA,NA,829775.760000019,831897.3899999983,835308.275000018,2121.629999979632,0,Retrieve,1,0,578,6400,80,narrow,orange1,532,450,82,835307.945000008,3410.55500000948,76,1,3,13,89,NA,NA,NA,1,3410.55500000948,3,368,268,3,4,368,0,1
jspsych-experimentscreen,132,838958,0.0-132.0,NA,NA,NA,NA,NA,NA,NA,NA,NA,NA,orange1,NA,NA,835317.055000021,837683.8550000102,841055.15,2366.7999999888707,1,Zap,0,1,578,6400,80,narrow,orange1,444,450,6,841054.755000019,3370.90000000899,73,1,0,70,3,NA,NA,NA,1,3370.90000000899,3,456,356,1,6,456,0,1
jspsych-experimentscreen,133,847968,0.0-133.0,NA,NA,NA,NA,NA,NA,NA,NA,NA,NA,blue1,NA,NA,841068.770000013,843327.1450000175,850064.490000019,2258.3750000048894,1,Zap,1,0,278,19600,140,wide,blue1,364,450,86,850064.225000009,6737.07999999169,94,1,0,1,95,NA,NA,NA,1,6737.07999999169,4,536,436,3,8,536,1,0
jspsych-experimentscreen,134,853655,0.0-134.0,NA,NA,NA,NA,NA,NA,NA,NA,NA,NA,blue1,NA,NA,850086.090000026,852171.9350000203,855752.015000005,2085.8449999941513,1,Zap,1,0,278,19600,140,wide,blue1,353,450,97,855751.71500002,3579.78000000003,97,1,0,77,20,NA,NA,NA,1,3579.78000000003,4,547,447,3,8,547,1,0
jspsych-experimentscreen,135,859326,0.0-135.0,NA,NA,NA,NA,NA,NA,NA,NA,NA,NA,orange1,NA,NA,855762.450000009,858316.8750000186,861422.67,2554.42500000936,0,Retrieve,1,0,578,6400,80,narrow,orange1,479,450,29,861422.115000023,3105.24000000441,63,1,3,5,58,NA,NA,NA,1,3105.24000000441,2,421,321,2,5,421,0,1
jspsych-experimentscreen,136,865050,0.0-136.0,NA,NA,NA,NA,NA,NA,NA,NA,NA,NA,orange1,NA,NA,861444.665000017,863563.5850000253,867146.565000003,2118.9200000080746,0,Retrieve,1,0,578,6400,80,narrow,orange1,676,450,226,867146.255,3582.66999997431,96,1,3,15,81,NA,NA,NA,1,3582.66999997431,4,224,124,6,1,224,0,1
jspsych-experimentscreen,137,870667,0.0-137.0,NA,NA,NA,NA,NA,NA,NA,NA,NA,NA,orange1,NA,NA,867157.940000005,869353.8150000095,872763.525000017,2195.8750000048894,0,Retrieve,1,0,578,6400,80,narrow,orange1,565,450,115,872757.165000017,3403.35000000778,75,1,3,49,26,NA,NA,NA,1,3403.35000000778,3,335,235,4,3,335,0,1
jspsych-experimentscreen,138,878581,0.0-138.0,NA,NA,NA,NA,NA,NA,NA,NA,NA,NA,blue1,NA,NA,872782.295000012,874780.1450000261,880677.290000021,1997.8500000142958,1,Zap,1,0,278,19600,140,wide,blue1,395,450,55,880676.980000018,5896.83499999228,98,1,0,27,71,NA,NA,NA,1,5896.83499999228,5,505,405,2,7,505,1,0
jspsych-experimentscreen,139,884707,0.0-139.0,NA,NA,NA,NA,NA,NA,NA,NA,NA,NA,blue1,NA,NA,880687.160000001,882956.2300000107,886803.730000014,2269.0700000093784,1,Zap,1,0,278,19600,140,wide,blue1,396,450,54,886803.080000012,3846.85000000172,99,1,0,75,24,NA,NA,NA,1,3846.85000000172,5,504,404,2,7,504,1,0
jspsych-experimentscreen,140,890562,0.0-140.0,NA,NA,NA,NA,NA,NA,NA,NA,NA,NA,orange1,NA,NA,886830.615000013,889147.6700000057,892658.940000023,2317.0549999922514,0,Retrieve,1,0,578,6400,80,narrow,orange1,594,450,144,892658.560000011,3510.89000000502,82,1,3,54,28,NA,NA,NA,1,3510.89000000502,4,306,206,5,2,306,0,1
jspsych-experimentscreen,141,896518,0.0-141.0,NA,NA,NA,NA,NA,NA,NA,NA,NA,NA,orange1,NA,NA,892677.060000016,895014.3250000256,898614.805000019,2337.265000009211,0,Retrieve,1,0,578,6400,80,narrow,orange1,507,450,57,898614.419999998,3600.0949999725,72,1,3,16,56,NA,NA,NA,1,3600.0949999725,3,393,293,2,5,393,0,1
jspsych-experimentscreen,142,901839,0.0-142.0,NA,NA,NA,NA,NA,NA,NA,NA,NA,NA,orange1,NA,NA,898643.195000011,900762.7550000034,903935.610000015,2119.559999991907,0,Retrieve,1,0,578,6400,80,narrow,orange1,479,450,29,903935.220000014,3172.46500001056,75,1,3,12,87,NA,NA,NA,1,3172.46500001056,3,421,321,2,5,421,0,1
jspsych-experimentscreen,143,907379,0.0-143.0,NA,NA,NA,NA,NA,NA,NA,NA,NA,NA,orange1,NA,NA,903953.045000002,906003.4350000205,909475.254999998,2050.390000018524,0,Retrieve,1,0,578,6400,80,narrow,orange1,630,450,180,909474.865000026,3471.43000000506,90,1,3,26,64,NA,NA,NA,1,3471.43000000506,4,270,170,6,1,270,0,1
jspsych-experimentscreen,144,913182,0.0-144.0,NA,NA,NA,NA,NA,NA,NA,NA,NA,NA,orange1,NA,NA,909488.895000017,911562.89500001,915278.760000016,2073.999999993248,0,Retrieve,1,0,578,6400,80,narrow,orange1,577,450,127,915278.375000024,3715.48000001349,73,1,3,71,2,NA,NA,NA,1,3715.48000001349,3,323,223,4,3,323,0,1
jspsych-experimentscreen,145,918635,0.0-145.0,NA,NA,NA,NA,NA,NA,NA,NA,NA,NA,blue1,NA,NA,915294.315000006,917365.1000000245,920731.820000015,2070.785000018077,1,Zap,1,0,278,19600,140,wide,blue1,429,450,21,920731.550000026,3366.45000000135,90,1,0,80,10,NA,NA,NA,1,3366.45000000135,4,471,371,2,7,471,1,0
jspsych-experimentscreen,146,923784,0.0-146.0,NA,NA,NA,NA,NA,NA,NA,NA,NA,NA,blue1,NA,NA,920742.050000001,922884.8900000157,925880.774999998,2142.840000014985,1,Zap,1,0,278,19600,140,wide,blue1,388,450,62,925880.465000024,2995.5750000081,100,1,0,-43,57,NA,NA,NA,1,2995.5750000081,5,512,412,3,8,512,1,0
jspsych-experimentscreen,147,929710,0.0-147.0,NA,NA,NA,NA,NA,NA,NA,NA,NA,NA,blue1,NA,NA,925896.520000009,927719.5700000157,931805.970000016,1823.050000006333,1,Zap,1,0,278,19600,140,wide,blue1,365,450,85,931805.424999999,4085.85499998298,100,1,0,-33,67,NA,NA,NA,1,4085.85499998298,5,535,435,3,8,535,1,0
jspsych-experimentscreen,148,935566,0.0-148.0,NA,NA,NA,NA,NA,NA,NA,NA,NA,NA,blue1,NA,NA,931849.765000021,934026.68000001,937662.665000011,2176.914999989094,1,Zap,1,0,278,19600,140,wide,blue1,273,450,177,937662.315000023,3635.63500001328,97,1,0,51,46,NA,NA,NA,1,3635.63500001328,4,627,527,5,10,627,1,0
jspsych-experimentscreen,149,942428,0.0-149.0,NA,NA,NA,NA,NA,NA,NA,NA,NA,NA,orange1,NA,NA,937677.519999997,941317.6250000251,944524.635000009,3640.105000027688,0,Retrieve,1,0,578,6400,80,narrow,orange1,490,450,40,944524.239999999,3206.61499997368,66,1,3,22,88,NA,NA,NA,1,3206.61499997368,3,410,310,2,5,410,0,1
jspsych-experimentscreen,150,947638,0.0-150.0,NA,NA,NA,NA,NA,NA,NA,NA,NA,NA,blue1,NA,NA,944537.01,946221.9250000198,949734.135000006,1684.9150000198279,1,Zap,1,0,278,19600,140,wide,blue1,312,450,138,949733.715000009,3511.78999998956,96,1,0,82,14,NA,NA,NA,1,3511.78999998956,4,588,488,4,9,588,1,0
jspsych-experimentscreen,151,953427,0.0-151.0,NA,NA,NA,NA,NA,NA,NA,NA,NA,NA,orange1,NA,NA,949744.185000018,952426.4300000214,955523.810000013,2682.245000003604,0,Retrieve,1,0,578,6400,80,narrow,orange1,587,450,137,955523.520000017,3097.08999999566,72,1,3,21,93,NA,NA,NA,1,3097.08999999566,3,313,213,4,3,313,0,1
jspsych-experimentscreen,152,959033,0.0-152.0,NA,NA,NA,NA,NA,NA,NA,NA,NA,NA,blue1,NA,NA,955533.040000009,957500.2350000141,961129.160000011,1967.1950000047218,1,Zap,1,0,278,19600,140,wide,blue1,342,450,108,961128.64000001,3628.40499999584,100,1,0,-20,80,NA,NA,NA,1,3628.40499999584,5,558,458,4,9,558,1,0
jspsych-experimentscreen,153,966382,0.0-153.0,NA,NA,NA,NA,NA,NA,NA,NA,NA,NA,blue1,NA,NA,961151.920000004,962975.9199999971,968478.385000024,1823.999999993248,1,Zap,1,0,278,19600,140,wide,blue1,391,450,59,968477.830000018,5501.91000002087,95,1,0,9,86,NA,NA,NA,1,5501.91000002087,4,509,409,2,7,509,1,0
jspsych-experimentscreen,154,971886,0.0-154.0,NA,NA,NA,NA,NA,NA,NA,NA,NA,NA,blue1,NA,NA,968504.680000013,970333.1900000048,973982.795000018,1828.509999992093,1,Zap,1,0,278,19600,140,wide,blue1,313,450,137,973982.455000019,3649.26500001457,97,1,0,5,92,NA,NA,NA,1,3649.26500001457,4,587,487,4,9,587,1,0
jspsych-experimentscreen,221,1160131,0.0-221.0,NA,NA,NA,NA,NA,NA,NA,NA,NA,NA,orange1,NA,NA,1153864.16500001,1157538.8900000253,1162228.17000002,3674.7250000189524,0,Retrieve,1,0,522,19600,140,wide,orange1,415,350,65,1162227.76500002,4688.87499999255,81,2,3,16,97,NA,NA,NA,1,4688.87499999255,4,415,415,3,8,415,0,0
jspsych-experimentscreen,222,1166605,0.0-222.0,NA,NA,NA,NA,NA,NA,NA,NA,NA,NA,blue1,NA,NA,1162250.63000002,1164990.300000005,1168702.55500003,2739.6699999808334,1,Zap,1,0,222,6400,80,narrow,blue1,324,350,26,1168701.99500001,3711.69500000542,71,2,0,8,63,NA,NA,NA,1,3711.69500000542,3,324,324,2,5,324,1,1
jspsych-experimentscreen,223,1173125,0.0-223.0,NA,NA,NA,NA,NA,NA,NA,NA,NA,NA,blue1,NA,NA,1168731.99,1171413.3450000081,1175221.45500002,2681.3550000078976,1,Zap,1,0,222,6400,80,narrow,blue1,219,350,131,1175221.08000002,3807.73500000942,84,2,0,48,36,NA,NA,NA,1,3807.73500000942,4,219,219,4,3,219,1,1
jspsych-experimentscreen,224,1178587,0.0-224.0,NA,NA,NA,NA,NA,NA,NA,NA,NA,NA,orange1,NA,NA,1175234.57,1177280.3550000244,1180684.61000003,2045.7850000238977,0,Retrieve,1,0,522,19600,140,wide,orange1,513,350,163,1180684.10500002,3403.74999999767,97,2,3,14,83,NA,NA,NA,1,3403.74999999767,4,513,513,5,10,513,0,0
jspsych-experimentscreen,225,1184551,0.0-225.0,NA,NA,NA,NA,NA,NA,NA,NA,NA,NA,orange1,NA,NA,1180701.925,1182578.9750000113,1186648.04500001,1877.0500000100583,0,Retrieve,1,0,522,19600,140,wide,orange1,462,350,112,1186647.585,4068.60999998753,88,2,3,87,1,NA,NA,NA,1,4068.60999998753,4,462,462,4,9,462,0,0
jspsych-experimentscreen,226,1190534,0.0-226.0,NA,NA,NA,NA,NA,NA,NA,NA,NA,NA,orange1,NA,NA,1186663.39,1188713.2649999985,1192631.02,2049.874999996973,0,Retrieve,1,0,522,19600,140,wide,orange1,388,350,38,1192630.665,3917.40000000573,91,2,3,89,2,NA,NA,NA,1,3917.40000000573,4,388,388,2,7,388,0,0
jspsych-experimentscreen,227,1197056,0.0-227.0,NA,NA,NA,NA,NA,NA,NA,NA,NA,NA,blue1,NA,NA,1192647.93000001,1195068.2450000022,1199153.47000002,2420.314999995753,0,Retrieve,0,1,222,6400,80,narrow,blue1,336,350,14,1199153.09000001,4084.84500000486,67,2,-3,20,47,NA,NA,NA,1,4084.84500000486,3,336,336,1,6,336,1,1
jspsych-experimentscreen,228,1202675,0.0-228.0,NA,NA,NA,NA,NA,NA,NA,NA,NA,NA,orange1,NA,NA,1199172.27500002,1201592.3850000254,1204772.01500002,2420.110000006389,0,Retrieve,1,0,522,19600,140,wide,orange1,482,350,132,1204771.70000001,3179.31499998667,98,2,3,74,24,NA,NA,NA,1,3179.31499998667,5,482,482,4,9,482,0,0
jspsych-experimentscreen,229,1209430,0.0-229.0,NA,NA,NA,NA,NA,NA,NA,NA,NA,NA,blue1,NA,NA,1204789.88000003,1208091.0300000105,1211526.9750000199,3301.149999984773,1,Zap,1,0,222,6400,80,narrow,blue1,283,350,67,1211526.08500002,3435.05500000902,68,2,0,7,61,NA,NA,NA,1,3435.05500000902,3,283,283,3,4,283,1,1
jspsych-experimentscreen,230,1214893,0.0-230.0,NA,NA,NA,NA,NA,NA,NA,NA,NA,NA,blue1,NA,NA,1211583.03000001,1214067.79500001,1216989.94,2484.7650000010617,1,Zap,1,0,222,6400,80,narrow,blue1,229,350,121,1216989.60500001,2921.80999999982,86,2,0,5,81,NA,NA,NA,1,2921.80999999982,4,229,229,4,3,229,1,1
jspsych-experimentscreen,231,1220004,0.0-231.0,NA,NA,NA,NA,NA,NA,NA,NA,NA,NA,blue1,NA,NA,1217006.44500001,1218899.0300000005,1222101.13000002,1892.584999994142,1,Zap,1,0,222,6400,80,narrow,blue1,180,350,170,1222100.85500003,3201.82500002556,99,2,0,36,63,NA,NA,NA,1,3201.82500002556,5,180,180,5,2,180,1,1
jspsych-experimentscreen,232,1227119,0.0-232.0,NA,NA,NA,NA,NA,NA,NA,NA,NA,NA,orange1,NA,NA,1222116.17000002,1224704.2500000098,1229216.38,2588.079999986803,0,Retrieve,1,0,522,19600,140,wide,orange1,590,350,240,1229216.02000002,4511.77000001189,99,2,3,23,76,NA,NA,NA,1,4511.77000001189,5,590,590,6,11,590,0,0
jspsych-experimentscreen,233,1233193,0.0-233.0,NA,NA,NA,NA,NA,NA,NA,NA,NA,NA,orange1,NA,NA,1229233.49500002,1231150.2900000196,1235289.40000001,1916.7949999973644,0,Retrieve,1,0,522,19600,140,wide,orange1,679,350,329,1235288.89500001,4138.60499998555,98,2,3,65,33,NA,NA,NA,1,4138.60499998555,5,679,679,6,11,679,0,0
jspsych-experimentscreen,234,1239427,0.0-234.0,NA,NA,NA,NA,NA,NA,NA,NA,NA,NA,blue1,NA,NA,1235329.60500001,1237900.2750000218,1241523.67000002,2570.670000015525,1,Zap,1,0,222,6400,80,narrow,blue1,173,350,177,1241523.35,3623.07499998133,95,2,0,75,20,NA,NA,NA,1,3623.07499998133,4,173,173,5,2,173,1,1
jspsych-experimentscreen,235,1245434,0.0-235.0,NA,NA,NA,NA,NA,NA,NA,NA,NA,NA,orange1,NA,NA,1241544.82500002,1243856.4699999988,1247531.055,2311.6449999797624,0,Retrieve,1,0,522,19600,140,wide,orange1,501,350,151,1247530.45000002,3673.9800000214,99,2,3,38,61,NA,NA,NA,1,3673.9800000214,5,501,501,5,10,501,0,0
jspsych-experimentscreen,236,1251090,0.0-236.0,NA,NA,NA,NA,NA,NA,NA,NA,NA,NA,blue1,NA,NA,1247565.86,1249851.9250000245,1253187.225,2286.065000022063,0,Retrieve,0,1,222,6400,80,narrow,blue1,341,350,9,1253186.84000001,3334.9149999849,75,2,-3,33,42,NA,NA,NA,1,3334.9149999849,3,341,341,1,6,341,1,1
jspsych-experimentscreen,237,1258415,0.0-237.0,NA,NA,NA,NA,NA,NA,NA,NA,NA,NA,blue1,NA,NA,1253205.06500002,1257530.2700000175,1260511.70500001,4325.205000001006,1,Zap,1,0,222,6400,80,narrow,blue1,222,350,128,1260511.20000001,2980.92999999062,98,2,0,72,26,NA,NA,NA,1,2980.92999999062,5,222,222,4,3,222,1,1
jspsych-experimentscreen,238,1264584,0.0-238.0,NA,NA,NA,NA,NA,NA,NA,NA,NA,NA,blue1,NA,NA,1260565.14000002,1263194.600000017,1266680.22000001,2629.4599999964703,1,Zap,1,0,222,6400,80,narrow,blue1,229,350,121,1266679.48000002,3484.88000000361,89,2,0,35,54,NA,NA,NA,1,3484.88000000361,4,229,229,4,3,229,1,1
jspsych-experimentscreen,239,1271143,0.0-239.0,NA,NA,NA,NA,NA,NA,NA,NA,NA,NA,orange1,NA,NA,1266738.95,1269962.445000012,1273239.245,3223.4950000129174,0,Retrieve,1,0,522,19600,140,wide,orange1,490,350,140,1273238.67000002,3276.22500000871,96,2,3,64,32,NA,NA,NA,1,3276.22500000871,4,490,490,4,9,490,0,0
jspsych-experimentscreen,240,1276589,0.0-240.0,NA,NA,NA,NA,NA,NA,NA,NA,NA,NA,blue1,NA,NA,1273277.96000001,1275418.415000022,1278685.42000002,2140.4550000152085,0,Retrieve,0,1,222,6400,80,narrow,blue1,303,350,47,1278685.06000002,3266.64499999606,61,2,-3,10,51,NA,NA,NA,1,3266.64499999606,2,303,303,2,5,303,1,1
jspsych-experimentscreen,241,1281858,0.0-241.0,NA,NA,NA,NA,NA,NA,NA,NA,NA,NA,orange1,NA,NA,1278707.91,1280716.540000023,1283954.95500002,2008.6300000257324,0,Retrieve,1,0,522,19600,140,wide,orange1,424,350,74,1283954.65,3238.10999997659,98,2,3,52,46,NA,NA,NA,1,3238.10999997659,5,424,424,3,8,424,0,0
jspsych-experimentscreen,242,1289536,0.0-242.0,NA,NA,NA,NA,NA,NA,NA,NA,NA,NA,blue1,NA,NA,1283977.87,1287802.3900000262,1291632.515,3824.5200000237674,1,Zap,1,0,222,6400,80,narrow,blue1,277,350,73,1291632.10000002,3829.70999999088,63,2,0,5,58,NA,NA,NA,1,3829.70999999088,2,277,277,3,4,277,1,1
jspsych-experimentscreen,243,1295750,0.0-243.0,NA,NA,NA,NA,NA,NA,NA,NA,NA,NA,blue1,NA,NA,1291650.03000002,1294514.9600000004,1297846.28,2864.929999981541,1,Zap,1,0,222,6400,80,narrow,blue1,88,350,262,1297845.94500001,3330.98500000779,99,2,0,89,10,NA,NA,NA,1,3330.98500000779,5,88,88,6,1,88,1,1
jspsych-experimentscreen,244,1301914,0.0-244.0,NA,NA,NA,NA,NA,NA,NA,NA,NA,NA,orange1,NA,NA,1297861.40000002,1300153.640000004,1304010.71,2292.2399999806657,0,Retrieve,1,0,522,19600,140,wide,orange1,481,350,131,1304010.34000001,3856.70000000391,96,2,3,10,86,NA,NA,NA,1,3856.70000000391,4,481,481,4,9,481,0,0
jspsych-experimentscreen,245,1308238,0.0-245.0,NA,NA,NA,NA,NA,NA,NA,NA,NA,NA,blue1,NA,NA,1304027.17500002,1306957.9800000065,1310334.32000002,2930.804999981774,1,Zap,1,0,222,6400,80,narrow,blue1,266,350,84,1310333.99500002,3376.0150000162,62,2,0,45,17,NA,NA,NA,1,3376.0150000162,2,266,266,3,4,266,1,1
jspsych-experimentscreen,246,1313786,0.0-246.0,NA,NA,NA,NA,NA,NA,NA,NA,NA,NA,orange1,NA,NA,1310352.48,1312537.2050000005,1315882.45500001,2184.724999999162,0,Retrieve,1,0,522,19600,140,wide,orange1,454,350,104,1315881.92500002,3344.72000002279,97,2,3,63,34,NA,NA,NA,1,3344.72000002279,4,454,454,4,9,454,0,0
jspsych-experimentscreen,247,1319492,0.0-247.0,NA,NA,NA,NA,NA,NA,NA,NA,NA,NA,orange1,NA,NA,1315934.92,1318334.3200000236,1321588.93,2399.4000000238884,0,Retrieve,1,0,522,19600,140,wide,orange1,494,350,144,1321588.66000001,3254.33999998495,97,2,3,92,5,NA,NA,NA,1,3254.33999998495,4,494,494,5,10,494,0,0
jspsych-experimentscreen,248,1326470,0.0-248.0,NA,NA,NA,NA,NA,NA,NA,NA,NA,NA,orange1,NA,NA,1321604.19500002,1324231.7150000017,1328567.36500002,2627.519999979995,0,Retrieve,1,0,522,19600,140,wide,orange1,407,350,57,1328566.66000001,4334.94500000961,98,2,3,91,7,NA,NA,NA,1,4334.94500000961,5,407,407,2,7,407,0,0
jspsych-experimentscreen,249,1330965,0.0-249.0,NA,NA,NA,NA,NA,NA,NA,NA,NA,NA,orange1,NA,NA,1328586.00000001,1330240.2700000093,1333061.53000001,1654.2699999990873,0,Retrieve,1,0,522,19600,140,wide,orange1,496,350,146,1333061.25,2820.9799999895,97,2,3,59,38,NA,NA,NA,1,2820.9799999895,4,496,496,5,10,496,0,0
jspsych-experimentscreen,250,1336193,0.0-250.0,NA,NA,NA,NA,NA,NA,NA,NA,NA,NA,blue1,NA,NA,1333125.76000002,1335108.0599999987,1338289.79500002,1982.2999999742024,1,Zap,1,0,222,6400,80,narrow,blue1,202,350,148,1338289.475,3181.41499999911,88,2,0,10,98,NA,NA,NA,1,3181.41499999911,4,202,202,5,2,202,1,1
jspsych-experimentscreen,251,1342599,0.0-251.0,NA,NA,NA,NA,NA,NA,NA,NA,NA,NA,orange1,NA,NA,1338307.94500001,1340741.4200000057,1344695.36500002,2433.4749999979977,0,Retrieve,1,0,522,19600,140,wide,orange1,382,350,32,1344694.87000001,3953.45000000088,99,2,3,26,73,NA,NA,NA,1,3953.45000000088,5,382,382,2,7,382,0,0
jspsych-experimentscreen,252,1348555,0.0-252.0,NA,NA,NA,NA,NA,NA,NA,NA,NA,NA,blue1,NA,NA,1344721.12500001,1347117.7900000184,1350652,2396.665000007488,0,Retrieve,0,1,222,6400,80,narrow,blue1,296,350,54,1350649.96500002,3532.17500000028,57,2,-3,25,32,NA,NA,NA,1,3532.17500000028,2,296,296,2,5,296,1,1
jspsych-experimentscreen,253,1354588,0.0-253.0,NA,NA,NA,NA,NA,NA,NA,NA,NA,NA,orange1,NA,NA,1350673.57000001,1352845.3549999977,1356685.08000002,2171.7849999840837,0,Retrieve,1,0,522,19600,140,wide,orange1,345,350,5,1356684.77000002,3839.41500002402,78,2,3,77,1,NA,NA,NA,1,3839.41500002402,3,345,345,1,6,345,0,0
jspsych-experimentscreen,254,1359638,0.0-254.0,NA,NA,NA,NA,NA,NA,NA,NA,NA,NA,orange1,NA,NA,1356700.83500003,1358446.0750000144,1361734.48000001,1745.2399999892805,0,Retrieve,1,0,522,19600,140,wide,orange1,483,350,133,1361734.215,3288.13999998965,98,2,3,58,40,NA,NA,NA,1,3288.13999998965,5,483,483,4,9,483,0,0
jspsych-experimentscreen,255,1365012,0.0-255.0,NA,NA,NA,NA,NA,NA,NA,NA,NA,NA,blue1,NA,NA,1361749.43000003,1364040.7650000125,1367108.88000001,2291.334999987157,1,Zap,1,0,222,6400,80,narrow,blue1,160,350,190,1367108.48000002,3067.71500001196,95,2,0,61,34,NA,NA,NA,1,3067.71500001196,4,160,160,6,1,160,1,1
jspsych-experimentscreen,256,1371062,0.0-256.0,NA,NA,NA,NA,NA,NA,NA,NA,NA,NA,blue1,NA,NA,1367124.41000002,1369762.235000002,1373159.25500001,2637.8249999834225,1,Zap,1,0,222,6400,80,narrow,blue1,206,350,144,1373158.635,3396.39999999781,97,2,0,77,20,NA,NA,NA,1,3396.39999999781,4,206,206,5,2,206,1,1
jspsych-experimentscreen,257,1377706,0.0-257.0,NA,NA,NA,NA,NA,NA,NA,NA,NA,NA,blue1,NA,NA,1373179.04000002,1375852.5500000105,1379803.08500002,2673.509999993257,1,Zap,1,0,222,6400,80,narrow,blue1,35,350,315,1379802.44500001,3949.89499999792,97,2,0,17,80,NA,NA,NA,1,3949.89499999792,4,35,35,6,1,35,1,1
jspsych-experimentscreen,258,1384169,0.0-258.0,NA,NA,NA,NA,NA,NA,NA,NA,NA,NA,blue1,NA,NA,1379857.17,1382326.4550000022,1386265.89000001,2469.2849999992177,0,Retrieve,0,1,222,6400,80,narrow,blue1,360,350,10,1386265.53,3939.07500000205,84,2,-3,3,81,NA,NA,NA,1,3939.07500000205,4,360,360,1,6,360,1,1
jspsych-experimentscreen,259,1390075,0.0-259.0,NA,NA,NA,NA,NA,NA,NA,NA,NA,NA,orange1,NA,NA,1386285.65000001,1388677.8900000209,1392171.46000001,2392.2400000155903,0,Retrieve,1,0,522,19600,140,wide,orange1,348,350,2,1392171.07000001,3493.17999999039,71,2,3,7,64,NA,NA,NA,1,3493.17999999039,3,348,348,1,6,348,0,0
jspsych-experimentscreen,260,1397184,0.0-260.0,NA,NA,NA,NA,NA,NA,NA,NA,NA,NA,blue1,NA,NA,1392190.36000001,1396104.480000009,1399281.01500002,3914.120000001276,1,Zap,1,0,222,6400,80,narrow,blue1,270,350,80,1399280.47,3175.98999998881,58,2,0,28,30,NA,NA,NA,1,3175.98999998881,2,270,270,3,4,270,1,1
jspsych-experimentscreen,261,1403722,0.0-261.0,NA,NA,NA,NA,NA,NA,NA,NA,NA,NA,blue1,NA,NA,1399315.59000001,1402487.1950000233,1405819.235,3171.6050000104588,1,Zap,1,0,222,6400,80,narrow,blue1,277,350,73,1405818.88500002,3331.6899999918,69,2,0,7,62,NA,NA,NA,1,3331.6899999918,3,277,277,3,4,277,1,1
jspsych-experimentscreen,262,1409107,0.0-262.0,NA,NA,NA,NA,NA,NA,NA,NA,NA,NA,orange1,NA,NA,1405834.57000001,1408115.1750000136,1411204.245,2280.605000007199,0,Retrieve,1,0,522,19600,140,wide,orange1,375,350,25,1411203.36500002,3088.19000000949,87,2,3,50,37,NA,NA,NA,1,3088.19000000949,4,375,375,2,7,375,0,0
jspsych-experimentscreen,263,1414131,0.0-263.0,NA,NA,NA,NA,NA,NA,NA,NA,NA,NA,orange1,NA,NA,1411242.35000001,1413109.2350000108,1416227.83000002,1866.8849999958184,0,Retrieve,1,0,522,19600,140,wide,orange1,435,350,85,1416227.46000002,3118.2250000129,85,2,3,12,73,NA,NA,NA,1,3118.2250000129,4,435,435,3,8,435,0,0
jspsych-experimentscreen,264,1419710,0.0-264.0,NA,NA,NA,NA,NA,NA,NA,NA,NA,NA,blue1,NA,NA,1416247.91500001,1418534.5749999979,1421807.39500001,2286.659999983385,1,Zap,1,0,222,6400,80,narrow,blue1,171,350,179,1421807.04000001,3272.46500001638,81,2,0,39,42,NA,NA,NA,1,3272.46500001638,4,171,171,5,2,171,1,1
jspsych-experimentscreen,265,1424754,0.0-265.0,NA,NA,NA,NA,NA,NA,NA,NA,NA,NA,blue1,NA,NA,1421825.06500001,1424116.7550000246,1426850.92500001,2291.69000001275,1,Zap,1,0,222,6400,80,narrow,blue1,225,350,125,1426850.48000002,2733.72499999823,76,2,0,50,26,NA,NA,NA,1,2733.72499999823,3,225,225,4,3,225,1,1
jspsych-experimentscreen,266,1431532,0.0-266.0,NA,NA,NA,NA,NA,NA,NA,NA,NA,NA,orange1,NA,NA,1426874.56500001,1429055.395000003,1433628.85500002,2180.8299999975134,0,Retrieve,1,0,522,19600,140,wide,orange1,416,350,66,1433627.485,4572.09000000148,94,2,3,58,36,NA,NA,NA,1,4572.09000000148,4,416,416,3,8,416,0,0
jspsych-experimentscreen,267,1436745,0.0-267.0,NA,NA,NA,NA,NA,NA,NA,NA,NA,NA,orange1,NA,NA,1433667.64500001,1435725.9699999995,1438842.08500001,2058.324999990873,0,Retrieve,1,0,522,19600,140,wide,orange1,381,350,31,1438841.47500002,3115.5050000234,78,2,3,46,32,NA,NA,NA,1,3115.5050000234,3,381,381,2,7,381,0,0
jspsych-experimentscreen,268,1441768,0.0-268.0,NA,NA,NA,NA,NA,NA,NA,NA,NA,NA,blue1,NA,NA,1438885.695,1440729.485000018,1443865.17500001,1843.7900000135414,1,Zap,1,0,222,6400,80,narrow,blue1,213,350,137,1443864.57000001,3135.08499998716,88,2,0,8,80,NA,NA,NA,1,3135.08499998716,4,213,213,4,3,213,1,1
jspsych-experimentscreen,269,1447271,0.0-269.0,NA,NA,NA,NA,NA,NA,NA,NA,NA,NA,orange1,NA,NA,1443883.68,1445767.0750000107,1449367.81000003,1883.3950000116602,0,Retrieve,1,0,522,19600,140,wide,orange1,459,350,109,1449367.455,3600.37999998895,96,2,3,90,6,NA,NA,NA,1,3600.37999998895,4,459,459,4,9,459,0,0
jspsych-experimentscreen,270,1453376,0.0-270.0,NA,NA,NA,NA,NA,NA,NA,NA,NA,NA,blue1,NA,NA,1449388.95000002,1452372.2050000215,1455472.38000002,2983.2549999991897,1,Zap,1,0,222,6400,80,narrow,blue1,251,350,99,1455472.00500002,3099.79999999632,56,2,0,53,3,NA,NA,NA,1,3099.79999999632,2,251,251,3,4,251,1,1
jspsych-experimentscreen,271,1458689,0.0-271.0,NA,NA,NA,NA,NA,NA,NA,NA,NA,NA,orange1,NA,NA,1455502.54500002,1457413.0850000074,1460781.415,1910.539999982575,0,Retrieve,1,0,522,19600,140,wide,orange1,587,350,237,1460781.08500002,3368.00000001676,98,2,3,65,33,NA,NA,NA,1,3368.00000001676,5,587,587,6,11,587,0,0
jspsych-experimentscreen,272,1465164,0.0-272.0,NA,NA,NA,NA,NA,NA,NA,NA,NA,NA,blue1,NA,NA,1460802.97000002,1464022.645000019,1467260.5,3219.6750000002794,1,Zap,1,0,222,6400,80,narrow,blue1,302,350,48,1467259.98,3237.33499998343,69,2,0,4,65,NA,NA,NA,1,3237.33499998343,3,302,302,2,5,302,1,1
jspsych-experimentscreen,273,1470608,0.0-273.0,NA,NA,NA,NA,NA,NA,NA,NA,NA,NA,blue1,NA,NA,1467298.71,1469411.9550000178,1472705.08000001,2113.245000015013,1,Zap,1,0,222,6400,80,narrow,blue1,177,350,173,1472704.62,3292.6649999863,93,2,0,31,62,NA,NA,NA,1,3292.6649999863,4,177,177,5,2,177,1,1
jspsych-experimentscreen,274,1476212,0.0-274.0,NA,NA,NA,NA,NA,NA,NA,NA,NA,NA,orange1,NA,NA,1472727.97000001,1474591.1950000154,1478305.13000002,1863.2250000082422,0,Retrieve,1,0,522,19600,140,wide,orange1,511,350,161,1478304.56000002,3713.36500000325,99,2,3,22,77,NA,NA,NA,1,3713.36500000325,5,511,511,5,10,511,0,0
jspsych-experimentscreen,275,1481901,0.0-275.0,NA,NA,NA,NA,NA,NA,NA,NA,NA,NA,orange1,NA,NA,1478335.79000001,1480608.5400000156,1483998.02500001,2272.7500000037253,0,Retrieve,1,0,522,19600,140,wide,orange1,349,350,1,1483997.665,3389.12499998696,62,2,3,16,46,NA,NA,NA,1,3389.12499998696,2,349,349,1,6,349,0,0
jspsych-experimentscreen,276,1487481,0.0-276.0,NA,NA,NA,NA,NA,NA,NA,NA,NA,NA,blue1,NA,NA,1484022.72500002,1486062.575000018,1489577.80500001,2039.8500000010245,0,Retrieve,0,1,222,6400,80,narrow,blue1,311,350,39,1489577.46500001,3514.88999999128,67,2,-3,10,77,NA,NA,NA,1,3514.88999999128,3,311,311,2,5,311,1,1
jspsych-experimentscreen,277,1493059,0.0-277.0,NA,NA,NA,NA,NA,NA,NA,NA,NA,NA,blue1,NA,NA,1489609.70500001,1491962.2550000204,1495155.49500001,2352.550000010524,1,Zap,1,0,222,6400,80,narrow,blue1,294,350,56,1495155.06000002,3192.80499999877,59,2,0,6,65,NA,NA,NA,1,3192.80499999877,2,294,294,2,5,294,1,1
jspsych-experimentscreen,278,1498542,0.0-278.0,NA,NA,NA,NA,NA,NA,NA,NA,NA,NA,orange1,NA,NA,1495174.83,1497056.665000011,1500638.52000001,1881.8350000074133,0,Retrieve,1,0,522,19600,140,wide,orange1,371,350,21,1500637.965,3581.29999999073,85,2,3,10,95,NA,NA,NA,1,3581.29999999073,4,371,371,2,7,371,0,0
jspsych-experimentscreen,279,1503912,0.0-279.0,NA,NA,NA,NA,NA,NA,NA,NA,NA,NA,orange1,NA,NA,1500712.85500002,1502533.844999998,1506009.24500002,1820.9899999783374,0,Retrieve,1,0,522,19600,140,wide,orange1,439,350,89,1506008.975,3475.13000000617,98,2,3,46,52,NA,NA,NA,1,3475.13000000617,5,439,439,3,8,439,0,0
jspsych-experimentscreen,280,1508936,0.0-280.0,NA,NA,NA,NA,NA,NA,NA,NA,NA,NA,orange1,NA,NA,1506030.035,1507749.4400000141,1511033.07,1719.4050000107381,0,Retrieve,1,0,522,19600,140,wide,orange1,426,350,76,1511032.67000002,3283.23000000091,98,2,3,53,45,NA,NA,NA,1,3283.23000000091,5,426,426,3,8,426,0,0
jspsych-experimentscreen,347,1687112,0.0-347.0,NA,NA,NA,NA,NA,NA,NA,NA,NA,NA,orange1,NA,NA,1681324.20500001,1683824.3000000075,1689209.68500001,2500.094999995781,0,Retrieve,1,0,278,19600,140,wide,orange1,303,450,147,1689209.16,5384.85999999102,98,3,3,78,20,NA,NA,NA,1,5384.85999999102,5,597,497,5,10,597,0,0
jspsych-experimentscreen,348,1693619,0.0-348.0,NA,NA,NA,NA,NA,NA,NA,NA,NA,NA,blue1,NA,NA,1689235.705,1692117.0700000075,1695716.47000001,2881.3650000083726,1,Zap,1,0,578,6400,80,narrow,blue1,530,450,80,1695716.09500001,3599.02500000317,79,3,0,25,54,NA,NA,NA,1,3599.02500000317,3,370,270,3,4,370,1,1
jspsych-experimentscreen,349,1699947,0.0-349.0,NA,NA,NA,NA,NA,NA,NA,NA,NA,NA,blue1,NA,NA,1695742.98000001,1698024.865000014,1702044.66500002,2281.8850000039674,1,Zap,1,0,578,6400,80,narrow,blue1,554,450,104,1702044.31500001,4019.4499999925,93,3,0,60,33,NA,NA,NA,1,4019.4499999925,4,346,246,4,3,346,1,1
jspsych-experimentscreen,350,1705662,0.0-350.0,NA,NA,NA,NA,NA,NA,NA,NA,NA,NA,orange1,NA,NA,1702066.19500002,1704229.565000016,1707759.05000002,2163.3699999947567,0,Retrieve,1,0,278,19600,140,wide,orange1,331,450,119,1707756.945,3527.37999998499,98,3,3,75,23,NA,NA,NA,1,3527.37999998499,5,569,469,4,9,569,0,0
jspsych-experimentscreen,351,1711101,0.0-351.0,NA,NA,NA,NA,NA,NA,NA,NA,NA,NA,blue1,NA,NA,1707787.66,1709823.8000000129,1713198.325,2036.1400000110734,1,Zap,1,0,578,6400,80,narrow,blue1,650,450,200,1713198.07000001,3374.27000000025,95,3,0,17,78,NA,NA,NA,1,3374.27000000025,4,250,150,6,1,250,1,1
jspsych-experimentscreen,352,1716427,0.0-352.0,NA,NA,NA,NA,NA,NA,NA,NA,NA,NA,orange1,NA,NA,1713225.06000003,1715068.0500000017,1718524.40000002,1842.9899999755435,0,Retrieve,1,0,278,19600,140,wide,orange1,319,450,131,1718523.99000002,3455.94000001438,93,3,3,4,89,NA,NA,NA,1,3455.94000001438,4,581,481,4,9,581,0,0
jspsych-experimentscreen,353,1721846,0.0-353.0,NA,NA,NA,NA,NA,NA,NA,NA,NA,NA,blue1,NA,NA,1718546.94,1720612.4100000015,1723942.98000002,2065.470000001369,1,Zap,1,0,578,6400,80,narrow,blue1,599,450,149,1723942.66,3330.24999999907,97,3,0,64,33,NA,NA,NA,1,3330.24999999907,4,301,201,5,2,301,1,1
jspsych-experimentscreen,354,1729054,0.0-354.0,NA,NA,NA,NA,NA,NA,NA,NA,NA,NA,blue1,NA,NA,1723972.40500001,1726373.3050000155,1731151.58500001,2400.900000007823,1,Zap,1,0,578,6400,80,narrow,blue1,542,450,92,1731151.14500001,4777.83999999519,78,3,0,6,72,NA,NA,NA,1,4777.83999999519,3,358,258,3,4,358,1,1
jspsych-experimentscreen,355,1735053,0.0-355.0,NA,NA,NA,NA,NA,NA,NA,NA,NA,NA,orange1,NA,NA,1731177.28500001,1733408.8850000117,1737150.01000001,2231.599999999162,0,Retrieve,1,0,278,19600,140,wide,orange1,435,450,15,1737149.70000001,3740.81499999738,67,3,3,40,27,NA,NA,NA,1,3740.81499999738,3,465,365,1,6,465,0,0
jspsych-experimentscreen,356,1740790,0.0-356.0,NA,NA,NA,NA,NA,NA,NA,NA,NA,NA,blue1,NA,NA,1737170.17,1739239.3000000156,1742886.6,2069.130000018049,1,Zap,1,0,578,6400,80,narrow,blue1,605,450,155,1742886.115,3646.81499998551,93,3,0,35,58,NA,NA,NA,1,3646.81499998551,4,295,195,5,2,295,1,1
jspsych-experimentscreen,357,1747294,0.0-357.0,NA,NA,NA,NA,NA,NA,NA,NA,NA,NA,blue1,NA,NA,1742924.295,1745687.2100000037,1749389.35500002,2762.9149999993388,1,Zap,1,0,578,6400,80,narrow,blue1,519,450,69,1749388.775,3701.56499999575,94,3,0,40,54,NA,NA,NA,1,3701.56499999575,4,381,281,3,4,381,1,1
jspsych-experimentscreen,358,1752174,0.0-358.0,NA,NA,NA,NA,NA,NA,NA,NA,NA,NA,orange1,NA,NA,1749445.84500001,1751286.8450000242,1754270.76500002,1841.0000000149012,0,Retrieve,1,0,278,19600,140,wide,orange1,336,450,114,1754270.38500001,2983.53999998653,97,3,3,84,13,NA,NA,NA,1,2983.53999998653,4,564,464,4,9,564,0,0
jspsych-experimentscreen,359,1758528,0.0-359.0,NA,NA,NA,NA,NA,NA,NA,NA,NA,NA,blue1,NA,NA,1754293.61000002,1756762.6950000122,1760625.21500001,2469.084999989718,1,Zap,1,0,578,6400,80,narrow,blue1,559,450,109,1760624.71500001,3862.02000000048,95,3,0,12,83,NA,NA,NA,1,3862.02000000048,4,341,241,4,3,341,1,1
jspsych-experimentscreen,360,1765415,0.0-360.0,NA,NA,NA,NA,NA,NA,NA,NA,NA,NA,blue1,NA,NA,1760673.12000002,1764108.980000019,1767512.77500001,3435.859999997774,1,Zap,1,0,578,6400,80,narrow,blue1,494,450,44,1767512.40500002,3403.42499999679,92,3,0,59,33,NA,NA,NA,1,3403.42499999679,4,406,306,2,5,406,1,1
jspsych-experimentscreen,361,1771415,0.0-361.0,NA,NA,NA,NA,NA,NA,NA,NA,NA,NA,blue1,NA,NA,1767536.46,1770165.9450000152,1773511.86500001,2629.4850000122096,1,Zap,1,0,578,6400,80,narrow,blue1,502,450,52,1773511.12500002,3345.18000000389,82,3,0,12,70,NA,NA,NA,1,3345.18000000389,4,398,298,2,5,398,1,1
jspsych-experimentscreen,362,1776897,0.0-362.0,NA,NA,NA,NA,NA,NA,NA,NA,NA,NA,blue1,NA,NA,1773573.08500001,1775726.1149999977,1778994.24,2153.0299999867566,1,Zap,1,0,578,6400,80,narrow,blue1,591,450,141,1778993.73000002,3267.61500001885,90,3,0,62,28,NA,NA,NA,1,3267.61500001885,4,309,209,5,2,309,1,1
jspsych-experimentscreen,363,1783002,0.0-363.0,NA,NA,NA,NA,NA,NA,NA,NA,NA,NA,orange1,NA,NA,1779062.79000003,1781006.1400000122,1785099.68500002,1943.3499999868218,0,Retrieve,1,0,278,19600,140,wide,orange1,446,450,4,1785099.35500001,4093.21500000078,86,3,3,61,25,NA,NA,NA,1,4093.21500000078,4,454,354,1,6,454,0,0
jspsych-experimentscreen,364,1787479,0.0-364.0,NA,NA,NA,NA,NA,NA,NA,NA,NA,NA,orange1,NA,NA,1785125.88000001,1786632.1549999993,1789575.91500002,1506.2749999924563,0,Retrieve,1,0,278,19600,140,wide,orange1,353,450,97,1789575.58500001,2943.4300000139,96,3,3,56,40,NA,NA,NA,1,2943.4300000139,4,547,447,3,8,547,0,0
jspsych-experimentscreen,365,1792859,0.0-365.0,NA,NA,NA,NA,NA,NA,NA,NA,NA,NA,blue1,NA,NA,1789596.80500001,1791721.9650000043,1794955.79000001,2125.159999995958,1,Zap,1,0,578,6400,80,narrow,blue1,628,450,178,1794955.29000001,3233.32500000834,83,3,0,-17,100,NA,NA,NA,1,3233.32500000834,4,272,172,5,2,272,1,1
jspsych-experimentscreen,366,1797927,0.0-366.0,NA,NA,NA,NA,NA,NA,NA,NA,NA,NA,orange1,NA,NA,1795017.35500002,1797122.325000004,1800024.35000002,2104.9699999857694,0,Retrieve,1,0,278,19600,140,wide,orange1,383,450,67,1800023.98500001,2901.66000000318,89,3,3,7,96,NA,NA,NA,1,2901.66000000318,4,517,417,3,8,517,0,0
jspsych-experimentscreen,367,1803560,0.0-367.0,NA,NA,NA,NA,NA,NA,NA,NA,NA,NA,blue1,NA,NA,1800049.425,1802500.0650000002,1805655.99,2450.6399999954738,1,Zap,1,0,578,6400,80,narrow,blue1,548,450,98,1805655.635,3155.57000000263,75,3,0,7,68,NA,NA,NA,1,3155.57000000263,3,352,252,3,4,352,1,1
jspsych-experimentscreen,368,1808577,0.0-368.0,NA,NA,NA,NA,NA,NA,NA,NA,NA,NA,orange1,NA,NA,1805680.87500002,1807777.2100000002,1810673.49000002,2096.334999980172,0,Retrieve,1,0,278,19600,140,wide,orange1,430,450,20,1810673.17000002,2895.96000002348,90,3,3,7,83,NA,NA,NA,1,2895.96000002348,4,470,370,1,6,470,0,0
jspsych-experimentscreen,369,1815440,0.0-369.0,NA,NA,NA,NA,NA,NA,NA,NA,NA,NA,orange1,NA,NA,1810699.77000001,1812472.0250000246,1817536.605,1772.255000018049,0,Retrieve,1,0,278,19600,140,wide,orange1,381,450,69,1817535.08500001,5063.05999998585,99,3,3,56,43,NA,NA,NA,1,5063.05999998585,5,519,419,3,8,519,0,0
jspsych-experimentscreen,370,1820846,0.0-370.0,NA,NA,NA,NA,NA,NA,NA,NA,NA,NA,orange1,NA,NA,1817581.405,1819403.7100000132,1822942.02000002,1822.3050000087824,0,Retrieve,1,0,278,19600,140,wide,orange1,216,450,234,1822941.67500001,3537.96499999589,99,3,3,41,58,NA,NA,NA,1,3537.96499999589,5,684,584,6,11,684,0,0
jspsych-experimentscreen,371,1826165,0.0-371.0,NA,NA,NA,NA,NA,NA,NA,NA,NA,NA,orange1,NA,NA,1822967.07500002,1825142.8149999992,1828261.37000002,2175.7399999769405,0,Retrieve,1,0,278,19600,140,wide,orange1,417,450,33,1828260.58,3117.76500000269,89,3,3,4,85,NA,NA,NA,1,3117.76500000269,4,483,383,2,7,483,0,0
jspsych-experimentscreen,372,1831772,0.0-372.0,NA,NA,NA,NA,NA,NA,NA,NA,NA,NA,orange1,NA,NA,1828321.17500002,1830283.150000003,1833868.39000002,1961.974999983795,0,Retrieve,1,0,278,19600,140,wide,orange1,438,450,12,1833868.04,3584.88999999827,83,3,3,48,35,NA,NA,NA,1,3584.88999999827,4,462,362,1,6,462,0,0
jspsych-experimentscreen,373,1836987,0.0-373.0,NA,NA,NA,NA,NA,NA,NA,NA,NA,NA,blue1,NA,NA,1833893.09,1835800.195000018,1839083.15000002,1907.1050000202376,0,Retrieve,0,1,578,6400,80,narrow,blue1,477,450,27,1839082.245,3282.04999997979,86,3,-3,70,16,NA,NA,NA,1,3282.04999997979,4,423,323,2,5,423,1,1
jspsych-experimentscreen,374,1842761,0.0-374.0,NA,NA,NA,NA,NA,NA,NA,NA,NA,NA,blue1,NA,NA,1839134.39000002,1841147.259999998,1844857.47000002,2012.8699999768287,1,Zap,1,0,578,6400,80,narrow,blue1,529,450,79,1844857.18000002,3709.92000002298,83,3,0,15,68,NA,NA,NA,1,3709.92000002298,4,371,271,3,4,371,1,1
jspsych-experimentscreen,375,1847875,0.0-375.0,NA,NA,NA,NA,NA,NA,NA,NA,NA,NA,orange1,NA,NA,1844886.36,1846746.135000023,1849971.17500001,1859.775000018999,0,Retrieve,1,0,278,19600,140,wide,orange1,350,450,100,1849969.57000002,3223.43499999261,93,3,3,9,84,NA,NA,NA,1,3223.43499999261,4,550,450,3,8,550,0,0
jspsych-experimentscreen,376,1853270,0.0-376.0,NA,NA,NA,NA,NA,NA,NA,NA,NA,NA,blue1,NA,NA,1850036.135,1852214.8500000185,1855366.38000002,2178.715000016382,0,Retrieve,0,1,578,6400,80,narrow,blue1,434,450,16,1855365.80500001,3150.95499999006,84,3,-3,78,6,NA,NA,NA,1,3150.95499999006,4,466,366,1,6,466,1,1
jspsych-experimentscreen,377,1859969,0.0-377.0,NA,NA,NA,NA,NA,NA,NA,NA,NA,NA,orange1,NA,NA,1855413.39500001,1857047.1350000007,1862065.26500001,1633.7399999902118,0,Retrieve,1,0,278,19600,140,wide,orange1,311,450,139,1862064.91500002,5017.78000002378,100,3,3,-10,90,NA,NA,NA,1,5017.78000002378,5,589,489,4,9,589,0,0
jspsych-experimentscreen,378,1865040,0.0-378.0,NA,NA,NA,NA,NA,NA,NA,NA,NA,NA,orange1,NA,NA,1862111.16,1863904.1000000143,1867136.64000001,1792.940000013914,0,Retrieve,1,0,278,19600,140,wide,orange1,241,450,209,1867136.12000001,3232.01999999583,87,3,3,6,81,NA,NA,NA,1,3232.01999999583,4,659,559,6,11,659,0,0
jspsych-experimentscreen,379,1870488,0.0-379.0,NA,NA,NA,NA,NA,NA,NA,NA,NA,NA,orange1,NA,NA,1867200.36000002,1869133.4600000118,1872585.19000001,1933.099999994738,0,Retrieve,1,0,278,19600,140,wide,orange1,152,450,298,1872584.63,3451.16999998572,94,3,3,47,47,NA,NA,NA,1,3451.16999998572,4,748,648,6,11,748,0,0
jspsych-experimentscreen,380,1877187,0.0-380.0,NA,NA,NA,NA,NA,NA,NA,NA,NA,NA,blue1,NA,NA,1872611.56000002,1875317.950000026,1879283.39000003,2706.3900000066496,1,Zap,1,0,578,6400,80,narrow,blue1,508,450,58,1879282.47500001,3964.5249999885,68,3,0,13,55,NA,NA,NA,1,3964.5249999885,3,392,292,2,5,392,1,1
jspsych-experimentscreen,381,1882308,0.0-381.0,NA,NA,NA,NA,NA,NA,NA,NA,NA,NA,blue1,NA,NA,1879322.42500002,1881018.544999999,1884405.01500003,1696.1199999786913,1,Zap,1,0,578,6400,80,narrow,blue1,555,450,105,1884404.65500002,3386.11000002129,86,3,0,82,4,NA,NA,NA,1,3386.11000002129,4,345,245,4,3,345,1,1
jspsych-experimentscreen,382,1886894,0.0-382.0,NA,NA,NA,NA,NA,NA,NA,NA,NA,NA,orange1,NA,NA,1884431.04000002,1886144.5450000174,1888990.48000001,1713.5049999924377,0,Retrieve,1,0,278,19600,140,wide,orange1,350,450,100,1888989.95000002,2845.40500000003,94,3,3,46,48,NA,NA,NA,1,2845.40500000003,4,550,450,3,8,550,0,0
jspsych-experimentscreen,383,1892840,0.0-383.0,NA,NA,NA,NA,NA,NA,NA,NA,NA,NA,blue1,NA,NA,1889053.56500001,1891225.8250000014,1894936.78000002,2172.259999992093,1,Zap,1,0,578,6400,80,narrow,blue1,601,450,151,1894936.09,3710.26500000153,91,3,0,22,69,NA,NA,NA,1,3710.26500000153,4,299,199,5,2,299,1,1
jspsych-experimentscreen,384,1898432,0.0-384.0,NA,NA,NA,NA,NA,NA,NA,NA,NA,NA,orange1,NA,NA,1894961.52000001,1896922.0600000117,1900529.045,1960.5400000000373,0,Retrieve,1,0,278,19600,140,wide,orange1,372,450,78,1900528.45000001,3606.39000000083,88,3,3,61,27,NA,NA,NA,1,3606.39000000083,4,528,428,3,8,528,0,0
jspsych-experimentscreen,385,1903615,0.0-385.0,NA,NA,NA,NA,NA,NA,NA,NA,NA,NA,orange1,NA,NA,1900580.82,1902785.7100000256,1905712.20500002,2204.890000022715,0,Retrieve,1,0,278,19600,140,wide,orange1,407,450,43,1905711.89500001,2926.18499998935,83,3,3,13,70,NA,NA,NA,1,2926.18499998935,4,493,393,2,7,493,0,0
jspsych-experimentscreen,386,1909135,0.0-386.0,NA,NA,NA,NA,NA,NA,NA,NA,NA,NA,blue1,NA,NA,1905741.71,1908372.08500001,1911232.20500001,2630.3750000079162,1,Zap,1,0,578,6400,80,narrow,blue1,558,450,108,1911231.87000002,2859.78500000783,74,3,0,59,15,NA,NA,NA,1,2859.78500000783,3,342,242,4,3,342,1,1
jspsych-experimentscreen,387,1914560,0.0-387.0,NA,NA,NA,NA,NA,NA,NA,NA,NA,NA,blue1,NA,NA,1911263.825,1913229.6000000206,1916657.13000001,1965.7750000187661,0,Retrieve,0,1,578,6400,80,narrow,blue1,431,450,19,1916656.79000001,3427.1899999876,71,3,-3,58,13,NA,NA,NA,1,3427.1899999876,3,469,369,1,6,469,1,1
jspsych-experimentscreen,388,1919414,0.0-388.0,NA,NA,NA,NA,NA,NA,NA,NA,NA,NA,orange1,NA,NA,1916683.24500002,1918367.18500001,1921510.52000001,1683.9399999880698,0,Retrieve,1,0,278,19600,140,wide,orange1,325,450,125,1921509.945,3142.7599999879,95,3,3,48,47,NA,NA,NA,1,3142.7599999879,4,575,475,4,9,575,0,0
jspsych-experimentscreen,389,1924264,0.0-389.0,NA,NA,NA,NA,NA,NA,NA,NA,NA,NA,blue1,NA,NA,1921561.76500002,1923498.5200000228,1926360.74500001,1936.7550000024494,1,Zap,1,0,578,6400,80,narrow,blue1,632,450,182,1926360.39000002,2861.86999999336,82,3,0,38,44,NA,NA,NA,1,2861.86999999336,4,268,168,6,1,268,1,1
jspsych-experimentscreen,390,1929714,0.0-390.0,NA,NA,NA,NA,NA,NA,NA,NA,NA,NA,blue1,NA,NA,1926388.96000001,1929074.1450000205,1931810.58000002,2685.185000009369,1,Zap,1,0,578,6400,80,narrow,blue1,499,450,49,1931809.93000002,2735.78499999712,66,3,0,25,41,NA,NA,NA,1,2735.78499999712,3,401,301,2,5,401,1,1
jspsych-experimentscreen,391,1934723,0.0-391.0,NA,NA,NA,NA,NA,NA,NA,NA,NA,NA,orange1,NA,NA,1931875.75000001,1933574.890000018,1936819.995,1699.140000011539,0,Retrieve,1,0,278,19600,140,wide,orange1,294,450,156,1936819.63000001,3244.73999999464,97,3,3,54,43,NA,NA,NA,1,3244.73999999464,4,606,506,5,10,606,0,0
jspsych-experimentscreen,392,1941207,0.0-392.0,NA,NA,NA,NA,NA,NA,NA,NA,NA,NA,blue1,NA,NA,1936845.47,1939972.6900000242,1943303.60000001,3127.2200000239536,1,Zap,1,0,578,6400,80,narrow,blue1,546,450,96,1943303.19000001,3330.49999998184,60,3,0,11,71,NA,NA,NA,1,3330.49999998184,2,354,254,3,4,354,1,1
jspsych-experimentscreen,393,1947818,0.0-393.0,NA,NA,NA,NA,NA,NA,NA,NA,NA,NA,blue1,NA,NA,1943330.99500003,1945649.8399999982,1949914.58500002,2318.844999972498,1,Zap,1,0,578,6400,80,narrow,blue1,504,450,54,1949914.23000002,4264.39000002574,76,3,0,44,32,NA,NA,NA,1,4264.39000002574,3,396,296,2,5,396,1,1
jspsych-experimentscreen,394,1953089,0.0-394.0,NA,NA,NA,NA,NA,NA,NA,NA,NA,NA,blue1,NA,NA,1949941.14000001,1951813.7900000147,1955185.97000002,1872.6500000047963,0,Retrieve,0,1,578,6400,80,narrow,blue1,432,450,18,1955178.75000002,3364.96000000625,91,3,-3,87,4,NA,NA,NA,1,3364.96000000625,4,468,368,1,6,468,1,1
jspsych-experimentscreen,395,1958270,0.0-395.0,NA,NA,NA,NA,NA,NA,NA,NA,NA,NA,blue1,NA,NA,1955227.71000001,1957538.8000000094,1960366.465,2311.090000002878,1,Zap,1,0,578,6400,80,narrow,blue1,566,450,116,1960365.97000001,2827.17000000412,67,3,0,38,29,NA,NA,NA,1,2827.17000000412,3,334,234,4,3,334,1,1
jspsych-experimentscreen,396,1964785,0.0-396.0,NA,NA,NA,NA,NA,NA,NA,NA,NA,NA,orange1,NA,NA,1960430.42000002,1962224.8950000212,1966882.11000001,1794.4750000024214,0,Retrieve,1,0,278,19600,140,wide,orange1,295,450,155,1966881.44500001,4656.54999998515,99,3,3,0,99,NA,NA,NA,1,4656.54999998515,5,605,505,5,10,605,0,0
jspsych-experimentscreen,397,1969574,0.0-397.0,NA,NA,NA,NA,NA,NA,NA,NA,NA,NA,blue1,NA,NA,1966950.17000003,1968820.7400000247,1971671.33000001,1870.5699999991339,1,Zap,1,0,578,6400,80,narrow,blue1,752,450,302,1971670.99000001,2850.24999998859,97,3,0,8,89,NA,NA,NA,1,2850.24999998859,4,148,48,6,1,148,1,1
jspsych-experimentscreen,398,1974464,0.0-398.0,NA,NA,NA,NA,NA,NA,NA,NA,NA,NA,orange1,NA,NA,1971703.06,1973704.4950000127,1976560.60500001,2001.4350000128616,0,Retrieve,1,0,278,19600,140,wide,orange1,425,450,25,1976560.00500001,2855.50999999396,85,3,3,75,10,NA,NA,NA,1,2855.50999999396,4,475,375,2,7,475,0,0
jspsych-experimentscreen,399,1979983,0.0-399.0,NA,NA,NA,NA,NA,NA,NA,NA,NA,NA,orange1,NA,NA,1976628.69000001,1978625.5050000036,1982079.84000002,1996.8149999913294,0,Retrieve,1,0,278,19600,140,wide,orange1,285,450,165,1982079.51500002,3454.01000001584,91,3,3,54,37,NA,NA,NA,1,3454.01000001584,4,615,515,5,10,615,0,0
jspsych-experimentscreen,400,1986443,0.0-400.0,NA,NA,NA,NA,NA,NA,NA,NA,NA,NA,orange1,NA,NA,1982109.85000001,1983943.0450000218,1988539.265,1833.1950000138022,0,Retrieve,1,0,278,19600,140,wide,orange1,383,450,67,1988538.975,4595.92999998131,97,3,3,75,22,NA,NA,NA,1,4595.92999998131,4,517,417,3,8,517,0,0
jspsych-experimentscreen,401,1991295,0.0-401.0,NA,NA,NA,NA,NA,NA,NA,NA,NA,NA,orange1,NA,NA,1988574.57000003,1990174.4650000182,1993391.6,1599.8949999921024,0,Retrieve,1,0,278,19600,140,wide,orange1,287,450,163,1993391.24000003,3216.77500000806,96,3,3,76,20,NA,NA,NA,1,3216.77500000806,4,613,513,5,10,613,0,0
jspsych-experimentscreen,402,1997005,0.0-402.0,NA,NA,NA,NA,NA,NA,NA,NA,NA,NA,orange1,NA,NA,1993416.83500001,1995515.0600000052,1999101.53000001,2098.2249999942724,0,Retrieve,1,0,278,19600,140,wide,orange1,421,450,29,1999100.985,3585.92499999213,83,3,3,9,92,NA,NA,NA,1,3585.92499999213,4,479,379,2,7,479,0,0
jspsych-experimentscreen,403,2001897,0.0-403.0,NA,NA,NA,NA,NA,NA,NA,NA,NA,NA,blue1,NA,NA,1999166.39,2001174.955000024,2003993.16500002,2008.5650000255555,1,Zap,1,0,578,6400,80,narrow,blue1,611,450,161,2003992.41500002,2817.45999999112,85,3,0,69,16,NA,NA,NA,1,2817.45999999112,4,289,189,5,2,289,1,1
jspsych-experimentscreen,404,2007333,0.0-404.0,NA,NA,NA,NA,NA,NA,NA,NA,NA,NA,blue1,NA,NA,2004036.07,2005901.4850000094,2009429.72000001,1865.4150000074878,1,Zap,1,0,578,6400,80,narrow,blue1,566,450,116,2009429.35000002,3527.86500001093,92,3,0,65,27,NA,NA,NA,1,3527.86500001093,4,334,234,4,3,334,1,1
jspsych-experimentscreen,405,2013227,0.0-405.0,NA,NA,NA,NA,NA,NA,NA,NA,NA,NA,orange1,NA,NA,2009451.97000002,2012081.520000007,2015323.52000001,2629.5499999832828,0,Retrieve,1,0,278,19600,140,wide,orange1,430,450,20,2015323.19000002,3241.67000001762,83,3,3,41,42,NA,NA,NA,1,3241.67000001762,4,470,370,1,6,470,0,0
jspsych-experimentscreen,406,2018328,0.0-406.0,NA,NA,NA,NA,NA,NA,NA,NA,NA,NA,orange1,NA,NA,2015349.10000002,2017228.5649999976,2020424.75500001,1879.464999976335,0,Retrieve,1,0,278,19600,140,wide,orange1,290,450,160,2020424.375,3195.81000000471,83,3,3,37,46,NA,NA,NA,1,3195.81000000471,4,610,510,5,10,610,0,0
jspsych-experimentscreen,473,2195499,0.0-473.0,NA,NA,NA,NA,NA,NA,NA,NA,NA,NA,blue1,NA,NA,2189936.47500002,2193394.4450000124,2197590.60500001,3457.9699999885634,1,Zap,1,0,522,19600,140,wide,blue1,518,350,168,2197590.00500001,4195.55999999307,91,4,0,10,81,NA,NA,NA,1,4195.55999999307,4,518,518,5,10,518,1,0
jspsych-experimentscreen,474,2201438,0.0-474.0,NA,NA,NA,NA,NA,NA,NA,NA,NA,NA,blue1,NA,NA,2197652.51500002,2200103.535000002,2203534.86500002,2451.019999978598,1,Zap,1,0,522,19600,140,wide,blue1,414,350,64,2203534.51,3430.9749999959,91,4,0,23,68,NA,NA,NA,1,3430.9749999959,4,414,414,3,8,414,1,0
jspsych-experimentscreen,475,2207136,0.0-475.0,NA,NA,NA,NA,NA,NA,NA,NA,NA,NA,orange1,NA,NA,2203560.48000001,2205323.960000009,2209232.38,1763.4799999943934,0,Retrieve,1,0,222,6400,80,narrow,orange1,11,350,339,2209231.91,3907.9499999932,96,4,3,53,43,NA,NA,NA,1,3907.9499999932,4,11,11,6,1,11,0,1
jspsych-experimentscreen,476,2212564,0.0-476.0,NA,NA,NA,NA,NA,NA,NA,NA,NA,NA,orange1,NA,NA,2209281.265,2211389.8800000027,2214660.33000001,2108.61500000488,0,Retrieve,1,0,222,6400,80,narrow,orange1,293,350,57,2214660.02500002,3270.14500001632,76,4,3,9,85,NA,NA,NA,1,3270.14500001632,3,293,293,2,5,293,0,1
jspsych-experimentscreen,477,2218659,0.0-477.0,NA,NA,NA,NA,NA,NA,NA,NA,NA,NA,blue1,NA,NA,2214690.615,2216749.150000018,2220755.85000002,2058.5350000187755,1,Zap,1,0,522,19600,140,wide,blue1,401,350,51,2220755.485,4006.3349999832,95,4,0,41,54,NA,NA,NA,1,4006.3349999832,4,401,401,2,7,401,1,0
jspsych-experimentscreen,478,2223797,0.0-478.0,NA,NA,NA,NA,NA,NA,NA,NA,NA,NA,orange1,NA,NA,2220786.11500002,2222574.0950000184,2225894.54000001,1787.9799999939278,0,Retrieve,1,0,222,6400,80,narrow,orange1,277,350,73,2225894.20500002,3320.11000000034,93,4,3,50,43,NA,NA,NA,1,3320.11000000034,4,277,277,3,4,277,0,1
jspsych-experimentscreen,479,2229185,0.0-479.0,NA,NA,NA,NA,NA,NA,NA,NA,NA,NA,blue1,NA,NA,2225924.77500002,2228031.1300000176,2231282.41000001,2106.354999996256,1,Zap,1,0,522,19600,140,wide,blue1,436,350,86,2231282.10000001,3250.96999999369,92,4,0,24,68,NA,NA,NA,1,3250.96999999369,4,436,436,3,8,436,1,0
jspsych-experimentscreen,480,2234397,0.0-480.0,NA,NA,NA,NA,NA,NA,NA,NA,NA,NA,blue1,NA,NA,2231313.19500002,2233434.3100000117,2236493.71000001,2121.114999987185,1,Zap,1,0,522,19600,140,wide,blue1,371,350,21,2236493.43500001,3059.12499999953,87,4,0,77,10,NA,NA,NA,1,3059.12499999953,4,371,371,2,7,371,1,0
jspsych-experimentscreen,481,2239370,0.0-481.0,NA,NA,NA,NA,NA,NA,NA,NA,NA,NA,blue1,NA,NA,2236518.905,2238272.855000017,2241467.07000001,1753.9500000127591,1,Zap,1,0,522,19600,140,wide,blue1,502,350,152,2241466.56,3193.70499998331,89,4,0,65,24,NA,NA,NA,1,3193.70499998331,4,502,502,5,10,502,1,0
jspsych-experimentscreen,482,2244892,0.0-482.0,NA,NA,NA,NA,NA,NA,NA,NA,NA,NA,blue1,NA,NA,2241496.13500002,2243266.1900000237,2246989.37000002,1770.0550000006333,1,Zap,1,0,522,19600,140,wide,blue1,529,350,179,2246989.03000003,3722.84000000264,93,4,0,3,90,NA,NA,NA,1,3722.84000000264,4,529,529,5,10,529,1,0
jspsych-experimentscreen,483,2251433,0.0-483.0,NA,NA,NA,NA,NA,NA,NA,NA,NA,NA,blue1,NA,NA,2247019.36500001,2248757.9950000215,2253530.295,1738.6300000068732,1,Zap,1,0,522,19600,140,wide,blue1,481,350,131,2253529.935,4771.93999997713,95,4,0,5,90,NA,NA,NA,1,4771.93999997713,4,481,481,4,9,481,1,0
jspsych-experimentscreen,484,2256498,0.0-484.0,NA,NA,NA,NA,NA,NA,NA,NA,NA,NA,orange1,NA,NA,2253563.25500002,2255477.364999999,2258595.34500001,1914.1099999831058,0,Retrieve,1,0,222,6400,80,narrow,orange1,209,350,141,2258595.065,3117.70000000251,86,4,3,7,79,NA,NA,NA,1,3117.70000000251,4,209,209,5,2,209,0,1
jspsych-experimentscreen,485,2261369,0.0-485.0,NA,NA,NA,NA,NA,NA,NA,NA,NA,NA,orange1,NA,NA,2258621.72000002,2260370.2250000206,2263466.05500003,1748.5049999956973,0,Retrieve,1,0,222,6400,80,narrow,orange1,174,350,176,2263465.66000002,3095.4349999954,97,4,3,55,42,NA,NA,NA,1,3095.4349999954,4,174,174,5,2,174,0,1
jspsych-experimentscreen,486,2266837,0.0-486.0,NA,NA,NA,NA,NA,NA,NA,NA,NA,NA,blue1,NA,NA,2263494.07000002,2265434.280000016,2268933.67500001,1940.210000000894,1,Zap,1,0,522,19600,140,wide,blue1,427,350,77,2268933.31000002,3499.03000000585,98,4,0,35,63,NA,NA,NA,1,3499.03000000585,5,427,427,3,8,427,1,0
jspsych-experimentscreen,487,2271651,0.0-487.0,NA,NA,NA,NA,NA,NA,NA,NA,NA,NA,blue1,NA,NA,2268963.21000002,2270871.0100000026,2273748.11000002,1907.7999999863096,1,Zap,1,0,522,19600,140,wide,blue1,442,350,92,2273747.55,2876.53999999724,95,4,0,22,73,NA,NA,NA,1,2876.53999999724,4,442,442,3,8,442,1,0
jspsych-experimentscreen,488,2276807,0.0-488.0,NA,NA,NA,NA,NA,NA,NA,NA,NA,NA,blue1,NA,NA,2273804.67000001,2275762.475000025,2278903.655,1957.8050000127405,1,Zap,1,0,522,19600,140,wide,blue1,487,350,137,2278903.25500001,3140.77999998722,96,4,0,33,63,NA,NA,NA,1,3140.77999998722,4,487,487,4,9,487,1,0
jspsych-experimentscreen,489,2283383,0.0-489.0,NA,NA,NA,NA,NA,NA,NA,NA,NA,NA,orange1,NA,NA,2278938.25500002,2281636.0150000257,2285479.295,2697.760000010021,0,Retrieve,1,0,222,6400,80,narrow,orange1,305,350,45,2285479.02500001,3843.00999998208,70,4,3,10,60,NA,NA,NA,1,3843.00999998208,3,305,305,2,5,305,0,1
jspsych-experimentscreen,490,2288571,0.0-490.0,NA,NA,NA,NA,NA,NA,NA,NA,NA,NA,orange1,NA,NA,2285511.22500002,2287279.120000021,2290667.22500001,1767.8949999972247,0,Retrieve,1,0,222,6400,80,narrow,orange1,202,350,148,2290666.87000002,3387.74999999441,88,4,3,80,8,NA,NA,NA,1,3387.74999999441,4,202,202,5,2,202,0,1
jspsych-experimentscreen,491,2294141,0.0-491.0,NA,NA,NA,NA,NA,NA,NA,NA,NA,NA,blue1,NA,NA,2290697.90500001,2292534.730000014,2296237.14500002,1836.8250000057742,1,Zap,1,0,522,19600,140,wide,blue1,397,350,47,2296236.68500001,3701.95499999681,88,4,0,6,82,NA,NA,NA,1,3701.95499999681,4,397,397,2,7,397,1,0
jspsych-experimentscreen,492,2299777,0.0-492.0,NA,NA,NA,NA,NA,NA,NA,NA,NA,NA,orange1,NA,NA,2296264.975,2298394.3100000033,2301873.085,2129.335000005085,0,Retrieve,1,0,222,6400,80,narrow,orange1,290,350,60,2301872.70500002,3478.39500001259,75,4,3,27,48,NA,NA,NA,1,3478.39500001259,3,290,290,3,4,290,0,1
jspsych-experimentscreen,493,2304734,0.0-493.0,NA,NA,NA,NA,NA,NA,NA,NA,NA,NA,blue1,NA,NA,2301905.795,2303986.5900000148,2306830.37500002,2080.795000015758,1,Zap,1,0,522,19600,140,wide,blue1,509,350,159,2306830.00500003,2843.41500001028,92,4,0,46,46,NA,NA,NA,1,2843.41500001028,4,509,509,5,10,509,1,0
jspsych-experimentscreen,494,2309516,0.0-494.0,NA,NA,NA,NA,NA,NA,NA,NA,NA,NA,blue1,NA,NA,2306879.31000002,2308709.8500000136,2311612.12000001,1830.5399999953806,1,Zap,1,0,522,19600,140,wide,blue1,453,350,103,2311611.78500002,2901.93500000192,84,4,0,53,31,NA,NA,NA,1,2901.93500000192,4,453,453,4,9,453,1,0
jspsych-experimentscreen,495,2314228,0.0-495.0,NA,NA,NA,NA,NA,NA,NA,NA,NA,NA,orange1,NA,NA,2311642.75,2313572.8850000016,2316324.39000002,1930.1350000025705,0,Retrieve,1,0,222,6400,80,narrow,orange1,261,350,89,2316324.08000002,2751.19500001892,81,4,3,14,67,NA,NA,NA,1,2751.19500001892,4,261,261,3,4,261,0,1
jspsych-experimentscreen,496,2320335,0.0-496.0,NA,NA,NA,NA,NA,NA,NA,NA,NA,NA,blue1,NA,NA,2316349.755,2319656.685000024,2322431.53500001,3306.9300000211224,0,Retrieve,0,1,522,19600,140,wide,blue1,342,350,8,2322430.91000002,2774.22500000056,64,4,-3,38,26,NA,NA,NA,1,2774.22500000056,2,342,342,1,6,342,1,0
jspsych-experimentscreen,497,2325157,0.0-497.0,NA,NA,NA,NA,NA,NA,NA,NA,NA,NA,orange1,NA,NA,2322495.97000002,2324285.3150000153,2327253.48500002,1789.3449999969453,0,Retrieve,1,0,222,6400,80,narrow,orange1,193,350,157,2327253.115,2967.79999998398,72,4,3,27,99,NA,NA,NA,1,2967.79999998398,3,193,193,5,2,193,0,1
jspsych-experimentscreen,498,2330507,0.0-498.0,NA,NA,NA,NA,NA,NA,NA,NA,NA,NA,orange1,NA,NA,2327293.72500002,2329527.7350000106,2332603.13500001,2234.0099999858066,0,Retrieve,1,0,222,6400,80,narrow,orange1,294,350,56,2332602.625,3074.88999998895,72,4,3,9,63,NA,NA,NA,1,3074.88999998895,3,294,294,2,5,294,0,1
jspsych-experimentscreen,499,2335459,0.0-499.0,NA,NA,NA,NA,NA,NA,NA,NA,NA,NA,orange1,NA,NA,2332659.25000003,2334599.270000006,2337555.42000002,1940.0199999799952,0,Retrieve,1,0,222,6400,80,narrow,orange1,287,350,63,2337555.13000002,2955.86000001617,60,4,3,26,86,NA,NA,NA,1,2955.86000001617,2,287,287,3,4,287,0,1
jspsych-experimentscreen,500,2340482,0.0-500.0,NA,NA,NA,NA,NA,NA,NA,NA,NA,NA,orange1,NA,NA,2337582.43000001,2339250.5999999996,2342578.84,1668.1699999901466,0,Retrieve,1,0,222,6400,80,narrow,orange1,243,350,107,2342578.27500001,3327.67500000726,70,4,3,17,87,NA,NA,NA,1,3327.67500000726,3,243,243,4,3,243,0,1
jspsych-experimentscreen,501,2346064,0.0-501.0,NA,NA,NA,NA,NA,NA,NA,NA,NA,NA,orange1,NA,NA,2342634.79500002,2344352.6500000153,2348160.795,1717.8549999953248,0,Retrieve,1,0,222,6400,80,narrow,orange1,252,350,98,2348160.41500002,3807.76500000525,71,4,3,21,50,NA,NA,NA,1,3807.76500000525,3,252,252,3,4,252,0,1
jspsych-experimentscreen,502,2351172,0.0-502.0,NA,NA,NA,NA,NA,NA,NA,NA,NA,NA,orange1,NA,NA,2348205.32000001,2349863.970000006,2353269.52,1658.6499999975786,0,Retrieve,1,0,222,6400,80,narrow,orange1,238,350,112,2353269.18500001,3405.2150000059,68,4,3,55,13,NA,NA,NA,1,3405.2150000059,3,238,238,4,3,238,0,1
jspsych-experimentscreen,503,2356322,0.0-503.0,NA,NA,NA,NA,NA,NA,NA,NA,NA,NA,orange1,NA,NA,2353298.855,2354981.915000011,2358419.15500001,1683.0600000103004,0,Retrieve,1,0,222,6400,80,narrow,orange1,245,350,105,2358418.79500001,3436.87999999383,68,4,3,14,54,NA,NA,NA,1,3436.87999999383,3,245,245,4,3,245,0,1
jspsych-experimentscreen,504,2361092,0.0-504.0,NA,NA,NA,NA,NA,NA,NA,NA,NA,NA,blue1,NA,NA,2358454.51000001,2360208.570000017,2363188.98500002,1754.0600000065751,1,Zap,1,0,522,19600,140,wide,blue1,496,350,146,2363188.44500001,2979.87499998976,82,4,0,24,58,NA,NA,NA,1,2979.87499998976,4,496,496,5,10,496,1,0
jspsych-experimentscreen,505,2365967,0.0-505.0,NA,NA,NA,NA,NA,NA,NA,NA,NA,NA,orange1,NA,NA,2363261.51500002,2365140.6500000157,2368063.80500001,1879.1349999955855,0,Retrieve,1,0,222,6400,80,narrow,orange1,215,350,135,2368063.45000002,2922.80000000028,68,4,3,8,76,NA,NA,NA,1,2922.80000000028,3,215,215,4,3,215,0,1
jspsych-experimentscreen,506,2370739,0.0-506.0,NA,NA,NA,NA,NA,NA,NA,NA,NA,NA,orange1,NA,NA,2368091.17,2369706.0700000147,2372835.93500001,1614.900000014808,0,Retrieve,1,0,222,6400,80,narrow,orange1,253,350,97,2372835.44000002,3129.37000000989,82,4,3,24,58,NA,NA,NA,1,3129.37000000989,4,253,253,3,4,253,0,1
jspsych-experimentscreen,507,2376120,0.0-507.0,NA,NA,NA,NA,NA,NA,NA,NA,NA,NA,blue1,NA,NA,2372865.45500002,2374763.9650000203,2378217.04000002,1898.5099999993108,1,Zap,1,0,522,19600,140,wide,blue1,376,350,26,2378213.60500003,3449.64000000618,69,4,0,55,14,NA,NA,NA,1,3449.64000000618,3,376,376,2,7,376,1,0
jspsych-experimentscreen,508,2380282,0.0-508.0,NA,NA,NA,NA,NA,NA,NA,NA,NA,NA,blue1,NA,NA,2378268.69500001,2379866.1000000136,2382378.95500002,1597.4050000077114,1,Zap,1,0,522,19600,140,wide,blue1,459,350,109,2382378.67000001,2512.56999999192,84,4,0,59,25,NA,NA,NA,1,2512.56999999192,4,459,459,4,9,459,1,0
jspsych-experimentscreen,509,2385015,0.0-509.0,NA,NA,NA,NA,NA,NA,NA,NA,NA,NA,blue1,NA,NA,2382415.30000002,2384597.160000005,2387111.75000001,2181.85999998264,1,Zap,1,0,522,19600,140,wide,blue1,374,350,24,2387111.44500002,2514.28500001226,85,4,0,37,48,NA,NA,NA,1,2514.28500001226,4,374,374,2,7,374,1,0
jspsych-experimentscreen,510,2390197,0.0-510.0,NA,NA,NA,NA,NA,NA,NA,NA,NA,NA,orange1,NA,NA,2387142.88,2389110.17,2392293.75000001,1967.290000000503,0,Retrieve,1,0,222,6400,80,narrow,orange1,181,350,169,2392293.38500003,3183.21500002639,92,4,3,22,70,NA,NA,NA,1,3183.21500002639,4,181,181,5,2,181,0,1
jspsych-experimentscreen,511,2394881,0.0-511.0,NA,NA,NA,NA,NA,NA,NA,NA,NA,NA,blue1,NA,NA,2392324.56000001,2394301.3050000006,2396977.805,1976.7449999926612,1,Zap,1,0,522,19600,140,wide,blue1,361,350,11,2396977.53,2676.22500000335,80,4,0,17,63,NA,NA,NA,1,2676.22500000335,3,361,361,1,6,361,1,0
jspsych-experimentscreen,512,2399372,0.0-512.0,NA,NA,NA,NA,NA,NA,NA,NA,NA,NA,orange1,NA,NA,2397009.01500002,2398564.964999998,2401469.32,1555.9499999801628,0,Retrieve,1,0,222,6400,80,narrow,orange1,93,350,257,2401468.84500002,2903.8800000269,83,4,3,33,50,NA,NA,NA,1,2903.8800000269,4,93,93,6,1,93,0,1
jspsych-experimentscreen,513,2404990,0.0-513.0,NA,NA,NA,NA,NA,NA,NA,NA,NA,NA,orange1,NA,NA,2401496.32500001,2403754.7000000197,2407086.55000001,2258.3750000051223,1,Zap,0,1,222,6400,80,narrow,orange1,342,350,8,2407085.99000002,3331.2900000019,74,4,0,70,4,NA,NA,NA,1,3331.2900000019,3,342,342,1,6,342,0,1
jspsych-experimentscreen,514,2410967,0.0-514.0,NA,NA,NA,NA,NA,NA,NA,NA,NA,NA,blue1,NA,NA,2407131.13000002,2409112.8200000096,2413063.555,1981.68999998644,1,Zap,1,0,522,19600,140,wide,blue1,479,350,129,2413063.04500002,3950.22500000754,78,4,0,26,52,NA,NA,NA,1,3950.22500000754,3,479,479,4,9,479,1,0
jspsych-experimentscreen,515,2416382,0.0-515.0,NA,NA,NA,NA,NA,NA,NA,NA,NA,NA,blue1,NA,NA,2413102.285,2415965.225000022,2418478.16500001,2862.940000020899,1,Zap,1,0,522,19600,140,wide,blue1,351,350,1,2418477.84500002,2512.6199999935902,71,4,0,51,20,NA,NA,NA,1,2512.6199999935902,3,351,351,1,6,351,1,0
jspsych-experimentscreen,516,2420822,0.0-516.0,NA,NA,NA,NA,NA,NA,NA,NA,NA,NA,blue1,NA,NA,2418515.18000002,2420218.205000012,2422918.50500001,1703.024999995716,1,Zap,1,0,522,19600,140,wide,blue1,420,350,70,2422913.04000001,2694.83500000183,65,4,0,60,5,NA,NA,NA,1,2694.83500000183,3,420,420,3,8,420,1,0
jspsych-experimentscreen,517,2426203,0.0-517.0,NA,NA,NA,NA,NA,NA,NA,NA,NA,NA,blue1,NA,NA,2422985.94500002,2424841.7900000056,2428299.44500001,1855.844999983441,1,Zap,1,0,522,19600,140,wide,blue1,431,350,81,2428298.99000001,3457.20000000484,80,4,0,29,51,NA,NA,NA,1,3457.20000000484,3,431,431,3,8,431,1,0
jspsych-experimentscreen,518,2430282,0.0-518.0,NA,NA,NA,NA,NA,NA,NA,NA,NA,NA,blue1,NA,NA,2428359.00000003,2430049.7600000235,2432379.00000002,1690.7599999974482,1,Zap,1,0,522,19600,140,wide,blue1,499,350,149,2432378.66000002,2328.89999999339,83,4,0,14,69,NA,NA,NA,1,2328.89999999339,4,499,499,5,10,499,1,0
jspsych-experimentscreen,519,2434708,0.0-519.0,NA,NA,NA,NA,NA,NA,NA,NA,NA,NA,orange1,NA,NA,2432419.57,2434320.010000025,2436804.53000002,1900.4400000264868,1,Zap,0,1,222,6400,80,narrow,orange1,363,350,13,2436803.82,2483.80999997631,72,4,0,30,42,NA,NA,NA,1,2483.80999997631,3,363,363,1,6,363,0,1
jspsych-experimentscreen,520,2439244,0.0-520.0,NA,NA,NA,NA,NA,NA,NA,NA,NA,NA,blue1,NA,NA,2436950.83000002,2438909.7699999986,2441340.89000002,1958.9399999827147,1,Zap,1,0,522,19600,140,wide,blue1,603,350,253,2441340.56000001,2430.79000001308,87,4,0,24,63,NA,NA,NA,1,2430.79000001308,4,603,603,6,11,603,1,0
jspsych-experimentscreen,521,2444080,0.0-521.0,NA,NA,NA,NA,NA,NA,NA,NA,NA,NA,blue1,NA,NA,2441368.41000002,2443734.065000026,2446176.82000002,2365.6550000016578,1,Zap,1,0,522,19600,140,wide,blue1,378,350,28,2446176.35000002,2442.28499999736,68,4,0,16,84,NA,NA,NA,1,2442.28499999736,3,378,378,2,7,378,1,0
jspsych-experimentscreen,522,2448225,0.0-522.0,NA,NA,NA,NA,NA,NA,NA,NA,NA,NA,blue1,NA,NA,2446206.88500002,2447817.335,2450321.28,1610.4499999787658,1,Zap,1,0,522,19600,140,wide,blue1,648,350,298,2450320.99500002,2503.66000001645,93,4,0,24,69,NA,NA,NA,1,2503.66000001645,4,648,648,6,11,648,1,0
jspsych-experimentscreen,523,2453236,0.0-523.0,NA,NA,NA,NA,NA,NA,NA,NA,NA,NA,orange1,NA,NA,2450361.775,2452120.210000023,2455332.35000001,1758.4350000252016,0,Retrieve,1,0,222,6400,80,narrow,orange1,79,350,271,2455332.01500002,3211.80499999924,81,4,3,79,2,NA,NA,NA,1,3211.80499999924,4,79,79,6,1,79,0,1
jspsych-experimentscreen,524,2458833,0.0-524.0,NA,NA,NA,NA,NA,NA,NA,NA,NA,NA,orange1,NA,NA,2455362.56000001,2457212.750000006,2460929.61000002,1850.1899999971502,0,Retrieve,1,0,222,6400,80,narrow,orange1,281,350,69,2460929.33500002,3716.58500001626,59,4,3,25,34,NA,NA,NA,1,3716.58500001626,2,281,281,3,4,281,0,1
jspsych-experimentscreen,525,2463575,0.0-525.0,NA,NA,NA,NA,NA,NA,NA,NA,NA,NA,orange1,NA,NA,2460963.08500003,2462689.9950000225,2465671.10000001,1726.909999997355,1,Zap,0,1,222,6400,80,narrow,orange1,335,350,15,2465670.77000003,2980.77500000363,68,4,0,57,11,NA,NA,NA,1,2980.77500000363,3,335,335,1,6,335,0,1
jspsych-experimentscreen,526,2468218,0.0-526.0,NA,NA,NA,NA,NA,NA,NA,NA,NA,NA,blue1,NA,NA,2465708.27,2467371.5100000263,2470314.855,1663.2400000235066,1,Zap,1,0,522,19600,140,wide,blue1,487,350,137,2470314.365,2942.85499997204,80,4,0,9,71,NA,NA,NA,1,2942.85499997204,3,487,487,4,9,487,1,0
jspsych-experimentscreen,527,2473360,0.0-527.0,NA,NA,NA,NA,NA,NA,NA,NA,NA,NA,orange1,NA,NA,2470347.12000002,2472610.265000025,2475456.34500001,2263.1450000042096,1,Zap,0,1,222,6400,80,narrow,orange1,315,350,35,2475455.71000001,2845.44499998447,68,4,0,30,38,NA,NA,NA,1,2845.44499998447,3,315,315,2,5,315,0,1
jspsych-experimentscreen,528,2479909,0.0-528.0,NA,NA,NA,NA,NA,NA,NA,NA,NA,NA,blue1,NA,NA,2475522.53500003,2477372.9050000254,2482005.95000002,1850.3700000001118,1,Zap,1,0,522,19600,140,wide,blue1,579,350,229,2482005.62500002,4632.71999999415,98,4,0,4,94,NA,NA,NA,1,4632.71999999415,5,579,579,6,11,579,1,0
jspsych-experimentscreen,529,2487494,0.0-529.0,NA,NA,NA,NA,NA,NA,NA,NA,NA,NA,orange1,NA,NA,2482039.265,2483904.125000001,2489590.19000002,1864.8600000012666,0,Retrieve,1,0,222,6400,80,narrow,orange1,235,350,115,2489589.78000001,5685.65500000864,72,4,3,48,24,NA,NA,NA,1,5685.65500000864,3,235,235,4,3,235,0,1
jspsych-experimentscreen,530,2494117,0.0-530.0,NA,NA,NA,NA,NA,NA,NA,NA,NA,NA,orange1,NA,NA,2489622.99500001,2492643.375000014,2496213.46500001,3020.380000001751,0,Retrieve,1,0,222,6400,80,narrow,orange1,327,350,23,2496212.99,3569.61499998625,49,4,3,35,84,NA,NA,NA,1,3569.61499998625,2,327,327,2,5,327,0,1
jspsych-experimentscreen,531,2499180,0.0-531.0,NA,NA,NA,NA,NA,NA,NA,NA,NA,NA,orange1,NA,NA,2496282.45,2498169.7750000167,2501276.89500002,1887.3250000178814,0,Retrieve,1,0,222,6400,80,narrow,orange1,198,350,152,2501276.57500003,3106.80000000866,84,4,3,30,54,NA,NA,NA,1,3106.80000000866,4,198,198,5,2,198,0,1
jspsych-experimentscreen,532,2503846,0.0-532.0,NA,NA,NA,NA,NA,NA,NA,NA,NA,NA,orange1,NA,NA,2501314.69,2503140.710000007,2505942.58,1826.0200000074692,0,Retrieve,1,0,222,6400,80,narrow,orange1,216,350,134,2505938.81000002,2798.10000001453,85,4,3,44,41,NA,NA,NA,1,2798.10000001453,4,216,216,4,3,216,0,1
jspsych-experimentscreen,95,547496,0.0-95.0,NA,NA,NA,NA,NA,NA,NA,NA,NA,NA,orange1,NA,NA,541893.190000003,545136.3550000023,548880.060000003,3243.1649999998044,0,Retrieve,1,0,522,19600,140,wide,orange1,432,350,82,548879.865000003,3743.51000000024,87,1,3,25,62,NA,NA,NA,2,3743.51000000024,4,432,432,3,8,432,0,0
jspsych-experimentscreen,96,558969,0.0-96.0,NA,NA,NA,NA,NA,NA,NA,NA,NA,NA,orange1,NA,NA,548883.05,555234.9500000018,560352.845000001,6351.90000000142,1,Zap,0,1,522,19600,140,wide,orange1,384,350,34,560352.685000002,5117.73499999987,1,1,0,21,22,NA,NA,NA,2,5117.73499999987,1,384,384,2,7,384,0,0
jspsych-experimentscreen,97,564596,0.0-97.0,NA,NA,NA,NA,NA,NA,NA,NA,NA,NA,orange1,NA,NA,560356.075000003,563339.4500000031,565979.4,2983.374999999767,1,Zap,0,1,522,19600,140,wide,orange1,394,350,44,565979.230000001,2639.7799999977,0,1,0,54,54,NA,NA,NA,2,2639.7799999977,1,394,394,2,7,394,0,0
jspsych-experimentscreen,98,570980,0.0-98.0,NA,NA,NA,NA,NA,NA,NA,NA,NA,NA,orange1,NA,NA,565983.015000002,568592.8450000029,572363.410000002,2609.8300000012387,0,Retrieve,1,0,522,19600,140,wide,orange1,431,350,81,572363.225000001,3770.37999999814,72,1,3,10,82,NA,NA,NA,2,3770.37999999814,3,431,431,3,8,431,0,0
jspsych-experimentscreen,99,576868,0.0-99.0,NA,NA,NA,NA,NA,NA,NA,NA,NA,NA,blue1,NA,NA,572368.865,574866.965000001,578251.505,2498.100000000675,1,Zap,1,0,222,6400,80,narrow,blue1,338,350,12,578251.345000001,3384.37999999954,14,1,0,3,17,NA,NA,NA,2,3384.37999999954,1,338,338,1,6,338,1,1
jspsych-experimentscreen,100,585843,0.0-100.0,NA,NA,NA,NA,NA,NA,NA,NA,NA,NA,blue1,NA,NA,578255.410000002,580965.7700000026,587226.620000001,2710.3600000010338,1,Zap,1,0,222,6400,80,narrow,blue1,319,350,31,587226.46000000206,6260.68999999913,82,1,0,16,66,NA,NA,NA,2,6260.68999999913,4,319,319,2,5,319,1,1
jspsych-experimentscreen,101,590724,0.0-101.0,NA,NA,NA,NA,NA,NA,NA,NA,NA,NA,orange1,NA,NA,587230.11,589341.6750000033,592106.180000002,2111.5650000028545,0,Retrieve,1,0,522,19600,140,wide,orange1,476,350,126,592105.995000002,2764.31999999844,98,1,3,67,31,NA,NA,NA,2,2764.31999999844,5,476,476,4,9,476,0,0
jspsych-experimentscreen,102,595384,0.0-102.0,NA,NA,NA,NA,NA,NA,NA,NA,NA,NA,orange1,NA,NA,592109.470000003,594523.2200000028,596766.825000002,2413.749999999767,0,Retrieve,1,0,522,19600,140,wide,orange1,447,350,97,596766.655000003,2243.43500000029,76,1,3,65,11,NA,NA,NA,2,2243.43500000029,3,447,447,3,8,447,0,0
jspsych-experimentscreen,103,600998,0.0-103.0,NA,NA,NA,NA,NA,NA,NA,NA,NA,NA,orange1,NA,NA,596770.175000001,599601.4200000027,602380.405000004,2831.245000001276,0,Retrieve,1,0,522,19600,140,wide,orange1,391,350,41,602380.230000003,2778.80999999982,22,1,3,10,32,NA,NA,NA,2,2778.80999999982,1,391,391,2,7,391,0,0
jspsych-experimentscreen,104,607817,0.0-104.0,NA,NA,NA,NA,NA,NA,NA,NA,NA,NA,blue1,NA,NA,602383.615000002,604773.8650000028,609199.840000001,2390.2500000003492,1,Zap,1,0,222,6400,80,narrow,blue1,318,350,32,609199.675000004,4425.81000000075,76,1,0,52,24,NA,NA,NA,2,4425.81000000075,3,318,318,2,5,318,1,1
jspsych-experimentscreen,105,615438,0.0-105.0,NA,NA,NA,NA,NA,NA,NA,NA,NA,NA,orange1,NA,NA,609203.680000002,611755.720000001,616819.895,2552.0399999986403,0,Retrieve,1,0,522,19600,140,wide,orange1,407,350,57,616819.675000002,5063.95500000147,54,1,3,31,85,NA,NA,NA,2,5063.95500000147,2,407,407,2,7,407,0,0
jspsych-experimentscreen,106,620218,0.0-106.0,NA,NA,NA,NA,NA,NA,NA,NA,NA,NA,orange1,NA,NA,616823.970000001,619081.9650000012,621599.950000003,2257.9949999999953,0,Retrieve,1,0,522,19600,140,wide,orange1,462,350,112,621599.760000001,2517.79499999969,86,1,3,32,54,NA,NA,NA,2,2517.79499999969,4,462,462,4,9,462,0,0
jspsych-experimentscreen,107,624930,0.0-107.0,NA,NA,NA,NA,NA,NA,NA,NA,NA,NA,orange1,NA,NA,621603.710000003,623595.8450000035,626312.260000002,1992.135000000475,0,Retrieve,1,0,522,19600,140,wide,orange1,592,350,242,626312.080000003,2716.23499999987,100,1,3,-26,74,NA,NA,NA,2,2716.23499999987,5,592,592,6,11,592,0,0
jspsych-experimentscreen,108,631725,0.0-108.0,NA,NA,NA,NA,NA,NA,NA,NA,NA,NA,orange1,NA,NA,626315.155,628755.795000001,633107.820000001,2440.6400000007125,1,Zap,0,1,522,19600,140,wide,orange1,341,350,9,633107.655000003,4351.86000000243,58,1,0,16,74,NA,NA,NA,2,4351.86000000243,2,341,341,1,6,341,0,0
jspsych-experimentscreen,109,636706,0.0-109.0,NA,NA,NA,NA,NA,NA,NA,NA,NA,NA,blue1,NA,NA,633111.88,635422.9950000008,638088.7,2311.1150000004563,1,Zap,1,0,222,6400,80,narrow,blue1,319,350,31,638088.525000003,2665.53000000201,58,1,0,31,27,NA,NA,NA,2,2665.53000000201,2,319,319,2,5,319,1,1
jspsych-experimentscreen,110,642281,0.0-110.0,NA,NA,NA,NA,NA,NA,NA,NA,NA,NA,blue1,NA,NA,638092.435000002,641370.4750000034,643663.755000001,3278.040000001085,1,Zap,1,0,222,6400,80,narrow,blue1,281,350,69,643663.565000003,2293.08999999915,84,1,0,16,68,NA,NA,NA,2,2293.08999999915,4,281,281,3,4,281,1,1
jspsych-experimentscreen,111,647862,0.0-111.0,NA,NA,NA,NA,NA,NA,NA,NA,NA,NA,blue1,NA,NA,643666.875000003,645957.2350000017,649242.525000002,2290.359999999171,1,Zap,1,0,222,6400,80,narrow,blue1,165,350,185,649242.345000002,3285.11000000068,100,1,0,-65,35,NA,NA,NA,2,3285.11000000068,5,165,165,6,1,165,1,1
jspsych-experimentscreen,112,652598,0.0-112.0,NA,NA,NA,NA,NA,NA,NA,NA,NA,NA,blue1,NA,NA,649246.650000001,651733.5000000021,653979.025000001,2486.850000001141,1,Zap,1,0,222,6400,80,narrow,blue1,247,350,103,653978.860000003,2245.3600000008,82,1,0,74,8,NA,NA,NA,2,2245.3600000008,4,247,247,4,3,247,1,1
jspsych-experimentscreen,113,657715,0.0-113.0,NA,NA,NA,NA,NA,NA,NA,NA,NA,NA,orange1,NA,NA,653983.340000003,656417.3750000009,659095.540000002,2434.034999998403,0,Retrieve,1,0,522,19600,140,wide,orange1,521,350,171,659095.345000002,2677.97000000067,91,1,3,75,16,NA,NA,NA,2,2677.97000000067,4,521,521,5,10,521,0,0
jspsych-experimentscreen,114,662017,0.0-114.0,NA,NA,NA,NA,NA,NA,NA,NA,NA,NA,orange1,NA,NA,659098.840000002,661313.7350000034,663397.200000003,2214.89500000095,0,Retrieve,1,0,522,19600,140,wide,orange1,529,350,179,663397.025000002,2083.28999999864,88,1,3,47,41,NA,NA,NA,2,2083.28999999864,4,529,529,5,10,529,0,0
jspsych-experimentscreen,115,667855,0.0-115.0,NA,NA,NA,NA,NA,NA,NA,NA,NA,NA,orange1,NA,NA,663400.115,666000.6700000013,669235.810000002,2600.5550000009825,0,Retrieve,1,0,522,19600,140,wide,orange1,487,350,137,669235.630000003,3234.96000000159,82,1,3,36,46,NA,NA,NA,2,3234.96000000159,4,487,487,4,9,487,0,0
jspsych-experimentscreen,116,672851,0.0-116.0,NA,NA,NA,NA,NA,NA,NA,NA,NA,NA,blue1,NA,NA,669239.765000002,671346.1700000007,674231.680000001,2106.404999998631,1,Zap,1,0,222,6400,80,narrow,blue1,102,350,248,674231.480000002,2885.31000000145,99,1,0,87,12,NA,NA,NA,2,2885.31000000145,5,102,102,6,1,102,1,1
jspsych-experimentscreen,117,677558,0.0-117.0,NA,NA,NA,NA,NA,NA,NA,NA,NA,NA,orange1,NA,NA,674235.73,676631.9900000016,678938.480000001,2396.26000000129,0,Retrieve,1,0,522,19600,140,wide,orange1,525,350,175,678938.300000002,2306.31000000006,84,1,3,21,63,NA,NA,NA,2,2306.31000000006,4,525,525,5,10,525,0,0
jspsych-experimentscreen,118,683156,0.0-118.0,NA,NA,NA,NA,NA,NA,NA,NA,NA,NA,blue1,NA,NA,678942.075000003,681636.690000003,684536.930000002,2694.61500000034,1,Zap,1,0,222,6400,80,narrow,blue1,358,350,8,684536.745000001,2900.0549999983,21,1,0,5,26,NA,NA,NA,2,2900.0549999983,1,358,358,1,6,358,1,1
jspsych-experimentscreen,119,688542,0.0-119.0,NA,NA,NA,NA,NA,NA,NA,NA,NA,NA,blue1,NA,NA,684540.680000002,687047.2950000003,689922.440000002,2506.614999998361,1,Zap,1,0,222,6400,80,narrow,blue1,298,350,52,689922.270000003,2874.97500000254,46,1,0,17,63,NA,NA,NA,2,2874.97500000254,1,298,298,2,5,298,1,1
jspsych-experimentscreen,120,692954,0.0-120.0,NA,NA,NA,NA,NA,NA,NA,NA,NA,NA,blue1,NA,NA,689927.020000003,692187.7200000017,694334.555000001,2260.6999999989057,1,Zap,1,0,222,6400,80,narrow,blue1,277,350,73,694334.360000001,2146.63999999908,43,1,0,20,23,NA,NA,NA,2,2146.63999999908,1,277,277,3,4,277,1,1
jspsych-experimentscreen,121,697716,0.0-121.0,NA,NA,NA,NA,NA,NA,NA,NA,NA,NA,blue1,NA,NA,694338.515000003,696631.2000000034,699096.640000003,2292.6850000002887,1,Zap,1,0,222,6400,80,narrow,blue1,119,350,231,699096.475000002,2465.27499999863,82,1,0,13,95,NA,NA,NA,2,2465.27499999863,4,119,119,6,1,119,1,1
jspsych-experimentscreen,122,702249,0.0-122.0,NA,NA,NA,NA,NA,NA,NA,NA,NA,NA,orange1,NA,NA,699100.8,701646.3550000008,703629.315000002,2545.5550000006333,0,Retrieve,1,0,522,19600,140,wide,orange1,433,350,83,703629.130000001,1982.77500000037,74,1,3,61,13,NA,NA,NA,2,1982.77500000037,3,433,433,3,8,433,0,0
jspsych-experimentscreen,123,707631,0.0-123.0,NA,NA,NA,NA,NA,NA,NA,NA,NA,NA,blue1,NA,NA,703633.235000001,705725.4150000007,709009.78,2092.1799999995856,1,Zap,1,0,222,6400,80,narrow,blue1,299,350,51,709009.615000003,3284.20000000193,42,1,0,30,72,NA,NA,NA,2,3284.20000000193,1,299,299,2,5,299,1,1
jspsych-experimentscreen,124,713646,0.0-124.0,NA,NA,NA,NA,NA,NA,NA,NA,NA,NA,orange1,NA,NA,709013.875000001,712173.095000002,715024.905000002,3159.220000001369,0,Retrieve,1,0,522,19600,140,wide,orange1,417,350,67,715024.715000003,2851.62000000128,54,1,3,4,50,NA,NA,NA,2,2851.62000000128,2,417,417,3,8,417,0,0
jspsych-experimentscreen,125,717806,0.0-125.0,NA,NA,NA,NA,NA,NA,NA,NA,NA,NA,orange1,NA,NA,715032.995000001,717125.3200000029,719184.825,2092.325000001467,0,Retrieve,1,0,522,19600,140,wide,orange1,507,350,157,719184.665000001,2059.34499999788,67,1,3,41,26,NA,NA,NA,2,2059.34499999788,3,507,507,5,10,507,0,0
jspsych-experimentscreen,126,725622,0.0-126.0,NA,NA,NA,NA,NA,NA,NA,NA,NA,NA,blue1,NA,NA,719188.375000002,721421.1050000013,727000.730000003,2232.7299999997485,1,Zap,1,0,222,6400,80,narrow,blue1,185,350,165,727000.545000003,5579.44000000134,89,1,0,3,92,NA,NA,NA,2,5579.44000000134,4,185,185,5,2,185,1,1
jspsych-experimentscreen,127,729479,0.0-127.0,NA,NA,NA,NA,NA,NA,NA,NA,NA,NA,blue1,NA,NA,727004.850000001,729083.3900000034,730857.215,2078.540000002249,1,Zap,1,0,222,6400,80,narrow,blue1,236,350,114,730857.050000002,1773.65999999898,78,1,0,56,22,NA,NA,NA,2,1773.65999999898,3,236,236,4,3,236,1,1
jspsych-experimentscreen,128,734244,0.0-128.0,NA,NA,NA,NA,NA,NA,NA,NA,NA,NA,blue1,NA,NA,730861.745000002,733204.9300000035,735622.54,2343.1850000015693,1,Zap,1,0,222,6400,80,narrow,blue1,249,350,101,735622.355000003,2417.42499999958,75,1,0,2,77,NA,NA,NA,2,2417.42499999958,3,249,249,4,3,249,1,1
jspsych-experimentscreen,129,740712,0.0-129.0,NA,NA,NA,NA,NA,NA,NA,NA,NA,NA,orange1,NA,NA,735626.785,739114.0750000014,742090.270000001,3487.2900000009686,1,Zap,0,1,522,19600,140,wide,orange1,363,350,13,742090.095000003,2976.02000000188,37,1,0,13,50,NA,NA,NA,2,2976.02000000188,1,363,363,1,6,363,0,0
jspsych-experimentscreen,130,746273,0.0-130.0,NA,NA,NA,NA,NA,NA,NA,NA,NA,NA,orange1,NA,NA,742094.580000001,745370.7400000021,747651.775000002,3276.1600000011967,1,Zap,0,1,522,19600,140,wide,orange1,361,350,11,747651.610000001,2280.8699999987102,26,1,0,42,68,NA,NA,NA,2,2280.8699999987102,1,361,361,1,6,361,0,0
jspsych-experimentscreen,131,751103,0.0-131.0,NA,NA,NA,NA,NA,NA,NA,NA,NA,NA,orange1,NA,NA,747656.185000003,749864.6400000034,752481.815000003,2208.454999999958,0,Retrieve,1,0,522,19600,140,wide,orange1,540,350,190,752481.635,2616.99499999674,77,1,3,4,73,NA,NA,NA,2,2616.99499999674,3,540,540,6,11,540,0,0
jspsych-experimentscreen,132,755216,0.0-132.0,NA,NA,NA,NA,NA,NA,NA,NA,NA,NA,blue1,NA,NA,752486.17,754584.4600000018,756594.33500000206,2098.290000001667,1,Zap,1,0,222,6400,80,narrow,blue1,208,350,142,756594.175000002,2009.7150000002,83,1,0,39,44,NA,NA,NA,2,2009.7150000002,4,208,208,5,2,208,1,1
jspsych-experimentscreen,133,760051,0.0-133.0,NA,NA,NA,NA,NA,NA,NA,NA,NA,NA,blue1,NA,NA,756598.345000002,758851.3150000036,761429.325000001,2252.970000001369,1,Zap,1,0,222,6400,80,narrow,blue1,191,350,159,761429.145000002,2577.82999999833,80,1,0,26,54,NA,NA,NA,2,2577.82999999833,3,191,191,5,2,191,1,1
jspsych-experimentscreen,134,765984,0.0-134.0,NA,NA,NA,NA,NA,NA,NA,NA,NA,NA,orange1,NA,NA,761433.615000002,765142.9350000035,767362.250000002,3709.3200000018114,1,Zap,0,1,522,19600,140,wide,orange1,378,350,28,767362.070000003,2219.13499999931,42,1,0,28,14,NA,NA,NA,2,2219.13499999931,1,378,378,2,7,378,0,0
jspsych-experimentscreen,135,771129,0.0-135.0,NA,NA,NA,NA,NA,NA,NA,NA,NA,NA,blue1,NA,NA,767366.71000000206,770504.0800000024,772506.130000002,3137.3700000003446,1,Zap,1,0,222,6400,80,narrow,blue1,237,350,113,772505.950000003,2001.87000000011,76,1,0,64,12,NA,NA,NA,2,2001.87000000011,3,237,237,4,3,237,1,1
jspsych-experimentscreen,136,775322,0.0-136.0,NA,NA,NA,NA,NA,NA,NA,NA,NA,NA,blue1,NA,NA,772510.630000001,774604.040000002,776699.3,2093.410000001313,1,Zap,1,0,222,6400,80,narrow,blue1,282,350,68,776699.120000001,2095.07999999914,65,1,0,13,52,NA,NA,NA,2,2095.07999999914,3,282,282,3,4,282,1,1
jspsych-experimentscreen,137,779339,0.0-137.0,NA,NA,NA,NA,NA,NA,NA,NA,NA,NA,orange1,NA,NA,776703.34,778806.8300000014,780716.355,2103.4900000012713,0,Retrieve,1,0,522,19600,140,wide,orange1,462,350,112,780716.190000003,1909.3600000015,84,1,3,40,44,NA,NA,NA,2,1909.3600000015,4,462,462,4,9,462,0,0
jspsych-experimentscreen,138,784209,0.0-138.0,NA,NA,NA,NA,NA,NA,NA,NA,NA,NA,orange1,NA,NA,780721.260000002,782807.3100000002,785585.865000001,2086.0499999980675,0,Retrieve,1,0,522,19600,140,wide,orange1,515,350,165,785585.705000001,2778.39500000118,76,1,3,46,30,NA,NA,NA,2,2778.39500000118,3,515,515,5,10,515,0,0
jspsych-experimentscreen,139,789470,0.0-139.0,NA,NA,NA,NA,NA,NA,NA,NA,NA,NA,blue1,NA,NA,785590.365,787995.8200000001,790846.570000001,2405.4550000000745,1,Zap,1,0,222,6400,80,narrow,blue1,312,350,38,790846.380000003,2850.56000000262,42,1,0,34,76,NA,NA,NA,2,2850.56000000262,1,312,312,2,5,312,1,1
jspsych-experimentscreen,140,794379,0.0-140.0,NA,NA,NA,NA,NA,NA,NA,NA,NA,NA,blue1,NA,NA,790851.200000001,793362.3600000028,795756.165000002,2511.160000001779,1,Zap,1,0,222,6400,80,narrow,blue1,353,350,3,795756.005000003,2393.64500000014,16,1,0,48,64,NA,NA,NA,2,2393.64500000014,1,353,353,1,6,353,1,1
jspsych-experimentscreen,141,798543,0.0-141.0,NA,NA,NA,NA,NA,NA,NA,NA,NA,NA,orange1,NA,NA,795760.890000001,797972.1500000014,799919.535000001,2211.2600000000093,0,Retrieve,1,0,522,19600,140,wide,orange1,507,350,157,799919.360000003,1947.21000000206,78,1,3,67,11,NA,NA,NA,2,1947.21000000206,3,507,507,5,10,507,0,0
jspsych-experimentscreen,142,802901,0.0-142.0,NA,NA,NA,NA,NA,NA,NA,NA,NA,NA,orange1,NA,NA,799924.09,802021.3000000003,804277.840000002,2097.2099999998463,0,Retrieve,1,0,522,19600,140,wide,orange1,542,350,192,804277.65,2256.34999999974,78,1,3,20,58,NA,NA,NA,2,2256.34999999974,3,542,542,6,11,542,0,0
jspsych-experimentscreen,143,808460,0.0-143.0,NA,NA,NA,NA,NA,NA,NA,NA,NA,NA,blue1,NA,NA,804282.330000002,806378.0650000008,809836.860000003,2095.7349999989383,1,Zap,1,0,222,6400,80,narrow,blue1,259,350,91,809836.69,3458.6249999993,79,1,0,3,76,NA,NA,NA,2,3458.6249999993,3,259,259,3,4,259,1,1
jspsych-experimentscreen,144,813555,0.0-144.0,NA,NA,NA,NA,NA,NA,NA,NA,NA,NA,orange1,NA,NA,809841.690000001,812513.9850000014,814931.650000002,2672.2950000002747,1,Zap,0,1,522,19600,140,wide,orange1,375,350,25,814931.45,2417.46499999869,7,1,0,86,93,NA,NA,NA,2,2417.46499999869,1,375,375,2,7,375,0,0
jspsych-experimentscreen,145,817945,0.0-145.0,NA,NA,NA,NA,NA,NA,NA,NA,NA,NA,orange1,NA,NA,814935.715000003,817126.1300000006,819321.565000002,2190.4149999973597,0,Retrieve,1,0,522,19600,140,wide,orange1,461,350,111,819321.350000002,2195.22000000137,70,1,3,5,65,NA,NA,NA,2,2195.22000000137,3,461,461,4,9,461,0,0
jspsych-experimentscreen,146,822406,0.0-146.0,NA,NA,NA,NA,NA,NA,NA,NA,NA,NA,orange1,NA,NA,819325.745000002,821551.445000001,823783.435000001,2225.699999999022,0,Retrieve,1,0,522,19600,140,wide,orange1,463,350,113,823783.26,2231.81499999913,71,1,3,25,46,NA,NA,NA,2,2231.81499999913,3,463,463,4,9,463,0,0
jspsych-experimentscreen,147,827517,0.0-147.0,NA,NA,NA,NA,NA,NA,NA,NA,NA,NA,orange1,NA,NA,823787.995000002,826389.0350000001,828892.200000002,2601.039999997709,0,Retrieve,1,0,522,19600,140,wide,orange1,426,350,76,828892.015000001,2502.98000000115,51,1,3,39,90,NA,NA,NA,2,2502.98000000115,2,426,426,3,8,426,0,0
jspsych-experimentscreen,148,831859,0.0-148.0,NA,NA,NA,NA,NA,NA,NA,NA,NA,NA,blue1,NA,NA,828896.720000001,831277.3400000005,833233.58,2380.619999999879,1,Zap,1,0,222,6400,80,narrow,blue1,234,350,116,833233.365,1956.02499999944,79,1,0,74,5,NA,NA,NA,2,1956.02499999944,3,234,234,4,3,234,1,1
jspsych-experimentscreen,149,836007,0.0-149.0,NA,NA,NA,NA,NA,NA,NA,NA,NA,NA,blue1,NA,NA,833238.545,835521.340000003,837382.220000003,2282.795000002836,1,Zap,1,0,222,6400,80,narrow,blue1,202,350,148,837382.025000003,1860.68499999959,81,1,0,69,12,NA,NA,NA,2,1860.68499999959,4,202,202,5,2,202,1,1
jspsych-experimentscreen,150,840740,0.0-150.0,NA,NA,NA,NA,NA,NA,NA,NA,NA,NA,blue1,NA,NA,837386.895000003,839771.2550000033,842115.260000002,2384.359999999986,1,Zap,1,0,222,6400,80,narrow,blue1,227,350,123,842115.065000002,2343.80999999854,77,1,0,18,59,NA,NA,NA,2,2343.80999999854,3,227,227,4,3,227,1,1
jspsych-experimentscreen,151,844878,0.0-151.0,NA,NA,NA,NA,NA,NA,NA,NA,NA,NA,blue1,NA,NA,842119.680000003,844491.8450000004,846252.695000003,2372.1649999970105,1,Zap,1,0,222,6400,80,narrow,blue1,182,350,168,846252.530000002,1760.6850000011,76,1,0,27,49,NA,NA,NA,2,1760.6850000011,3,182,182,5,2,182,1,1
jspsych-experimentscreen,152,849180,0.0-152.0,NA,NA,NA,NA,NA,NA,NA,NA,NA,NA,blue1,NA,NA,846257.925000002,848434.8200000022,850555.240000002,2176.8950000004843,1,Zap,1,0,222,6400,80,narrow,blue1,185,350,165,850555.040000003,2120.22000000079,77,1,0,18,95,NA,NA,NA,2,2120.22000000079,3,185,185,5,2,185,1,1
jspsych-experimentscreen,153,853078,0.0-153.0,NA,NA,NA,NA,NA,NA,NA,NA,NA,NA,blue1,NA,NA,850559.415000003,852728.7650000035,854453.065000002,2169.3500000002095,1,Zap,1,0,222,6400,80,narrow,blue1,252,350,98,854452.89,1724.12499999697,76,1,0,38,38,NA,NA,NA,2,1724.12499999697,3,252,252,3,4,252,1,1
jspsych-experimentscreen,154,856846,0.0-154.0,NA,NA,NA,NA,NA,NA,NA,NA,NA,NA,blue1,NA,NA,854457.350000001,856361.0800000024,858221.410000002,1903.730000001844,1,Zap,1,0,222,6400,80,narrow,blue1,274,350,76,858221.155000003,1860.07500000054,73,1,0,11,84,NA,NA,NA,2,1860.07500000054,3,274,274,3,4,274,1,1
jspsych-experimentscreen,221,1023993,0.0-221.0,NA,NA,NA,NA,NA,NA,NA,NA,NA,NA,orange1,NA,NA,1017292.42,1021210.065000003,1025362.37,3917.6450000014156,0,Retrieve,1,0,578,6400,80,narrow,orange1,714,450,264,1025362.145,4152.07999999984,96,2,3,20,76,NA,NA,NA,2,4152.07999999984,4,186,86,6,1,186,0,1
jspsych-experimentscreen,222,1029007,0.0-222.0,NA,NA,NA,NA,NA,NA,NA,NA,NA,NA,blue1,NA,NA,1025368.6,1027785.4000000006,1030376.755,2416.799999998999,1,Zap,1,0,278,19600,140,wide,blue1,225,450,225,1030376.575,2591.17500000144,100,2,0,-29,71,NA,NA,NA,2,2591.17500000144,5,675,575,6,11,675,1,0
jspsych-experimentscreen,223,1033587,0.0-223.0,NA,NA,NA,NA,NA,NA,NA,NA,NA,NA,blue1,NA,NA,1030382.515,1032565.7050000009,1034957.085,2183.1899999997113,1,Zap,1,0,278,19600,140,wide,blue1,296,450,154,1034956.905,2391.20000000182,100,2,0,-72,28,NA,NA,NA,2,2391.20000000182,5,604,504,5,10,604,1,0
jspsych-experimentscreen,224,1038286,0.0-224.0,NA,NA,NA,NA,NA,NA,NA,NA,NA,NA,blue1,NA,NA,1034963.46,1036992.2050000023,1039656.3,2028.744999999646,1,Zap,1,0,278,19600,140,wide,blue1,272,450,178,1039656.09,2663.88499999815,100,2,0,-35,65,NA,NA,NA,2,2663.88499999815,5,628,528,5,10,628,1,0
jspsych-experimentscreen,225,1045665,0.0-225.0,NA,NA,NA,NA,NA,NA,NA,NA,NA,NA,orange1,NA,NA,1039662.475,1042857.4800000024,1047035.285,3195.0050000014016,0,Retrieve,1,0,578,6400,80,narrow,orange1,604,450,154,1047035.115,4177.63500000001,0,2,3,22,22,NA,NA,NA,2,4177.63500000001,1,296,196,5,2,296,0,1
jspsych-experimentscreen,226,1051304,0.0-226.0,NA,NA,NA,NA,NA,NA,NA,NA,NA,NA,orange1,NA,NA,1047042.895,1049897.280000001,1052673.565,2854.3849999986123,0,Retrieve,1,0,578,6400,80,narrow,orange1,523,450,73,1052673.385,2776.10500000091,0,2,3,51,51,NA,NA,NA,2,2776.10500000091,1,377,277,3,4,377,0,1
jspsych-experimentscreen,227,1057668,0.0-227.0,NA,NA,NA,NA,NA,NA,NA,NA,NA,NA,orange1,NA,NA,1052679.515,1055590.755000001,1059037.845,2911.2399999976624,0,Retrieve,1,0,578,6400,80,narrow,orange1,615,450,165,1059037.675,3446.92000000225,25,2,3,19,44,NA,NA,NA,2,3446.92000000225,1,285,185,5,2,285,0,1
jspsych-experimentscreen,228,1062682,0.0-228.0,NA,NA,NA,NA,NA,NA,NA,NA,NA,NA,orange1,NA,NA,1059045.635,1061473.5250000013,1064052.295,2427.889999999199,0,Retrieve,1,0,578,6400,80,narrow,orange1,500,450,50,1064052.11,2578.58499999926,3,2,3,83,86,NA,NA,NA,2,2578.58499999926,1,400,300,2,5,400,0,1
jspsych-experimentscreen,229,1066935,0.0-229.0,NA,NA,NA,NA,NA,NA,NA,NA,NA,NA,blue1,NA,NA,1064058.5,1066010.4200000023,1068304.39,1951.9199999994598,1,Zap,1,0,278,19600,140,wide,blue1,208,450,242,1068304.23,2293.80999999936,100,2,0,-96,4,NA,NA,NA,2,2293.80999999936,5,692,592,6,11,692,1,0
jspsych-experimentscreen,230,1072843,0.0-230.0,NA,NA,NA,NA,NA,NA,NA,NA,NA,NA,orange1,NA,NA,1068311.45,1071930.725000002,1074211.275,3619.275000000838,0,Retrieve,1,0,578,6400,80,narrow,orange1,488,450,38,1074211.025,2280.29999999865,29,2,3,-26,3,NA,NA,NA,2,2280.29999999865,1,412,312,2,5,412,0,1
jspsych-experimentscreen,231,1077405,0.0-231.0,NA,NA,NA,NA,NA,NA,NA,NA,NA,NA,orange1,NA,NA,1074219.39,1076281.345000003,1078773.43,2061.955000001006,0,Retrieve,1,0,578,6400,80,narrow,orange1,517,450,67,1078773.27,2491.92499999842,25,2,3,16,41,NA,NA,NA,2,2491.92499999842,1,383,283,3,4,383,0,1
jspsych-experimentscreen,232,1081248,0.0-232.0,NA,NA,NA,NA,NA,NA,NA,NA,NA,NA,blue1,NA,NA,1078779.4,1080682.2100000028,1082615.875,1902.8099999995902,0,Retrieve,0,1,278,19600,140,wide,blue1,466,450,16,1082615.695,1933.48499999754,19,2,-3,78,97,NA,NA,NA,2,1933.48499999754,1,434,334,1,6,434,1,0
jspsych-experimentscreen,233,1085923,0.0-233.0,NA,NA,NA,NA,NA,NA,NA,NA,NA,NA,blue1,NA,NA,1082622.335,1085021.0850000004,1087291.29,2398.7500000004657,1,Zap,1,0,278,19600,140,wide,blue1,353,450,97,1087291.1,2270.01500000176,100,2,0,-92,8,NA,NA,NA,2,2270.01500000176,5,547,447,3,8,547,1,0
jspsych-experimentscreen,234,1091663,0.0-234.0,NA,NA,NA,NA,NA,NA,NA,NA,NA,NA,blue1,NA,NA,1087297.825,1089435.0350000022,1093030.995,2137.2100000006612,1,Zap,1,0,278,19600,140,wide,blue1,345,450,105,1093030.825,3595.78999999934,100,2,0,-46,54,NA,NA,NA,2,3595.78999999934,5,555,455,4,9,555,1,0
jspsych-experimentscreen,235,1096180,0.0-235.0,NA,NA,NA,NA,NA,NA,NA,NA,NA,NA,orange1,NA,NA,1093037.97,1095402.6950000008,1097547.875,2364.7249999996275,0,Retrieve,1,0,578,6400,80,narrow,orange1,582,450,132,1097547.715,2145.01999999979,13,2,3,82,95,NA,NA,NA,2,2145.01999999979,1,318,218,4,3,318,0,1
jspsych-experimentscreen,236,1101083,0.0-236.0,NA,NA,NA,NA,NA,NA,NA,NA,NA,NA,orange1,NA,NA,1097554.895,1100107.1600000032,1102450.54,2552.265000001993,0,Retrieve,1,0,578,6400,80,narrow,orange1,478,450,28,1102450.375,2343.21499999729,38,2,3,27,65,NA,NA,NA,2,2343.21499999729,1,422,322,2,5,422,0,1
jspsych-experimentscreen,237,1106367,0.0-237.0,NA,NA,NA,NA,NA,NA,NA,NA,NA,NA,blue1,NA,NA,1102458.96,1105739.3300000003,1107734.725,3280.3699999966193,0,Retrieve,0,1,278,19600,140,wide,blue1,415,450,35,1107734.54,1995.21000000089,37,2,-3,-32,5,NA,NA,NA,2,1995.21000000089,1,485,385,2,7,485,1,0
jspsych-experimentscreen,238,1110330,0.0-238.0,NA,NA,NA,NA,NA,NA,NA,NA,NA,NA,orange1,NA,NA,1107741.805,1109837.1350000016,1111698.34,2095.3300000000745,0,Retrieve,1,0,578,6400,80,narrow,orange1,584,450,134,1111698.18,1861.04500000132,15,2,3,8,23,NA,NA,NA,2,1861.04500000132,1,316,216,4,3,316,0,1
jspsych-experimentscreen,239,1114941,0.0-239.0,NA,NA,NA,NA,NA,NA,NA,NA,NA,NA,blue1,NA,NA,1111705.835,1113532.8000000007,1116309.135,1826.9650000000838,1,Zap,1,0,278,19600,140,wide,blue1,331,450,119,1116308.955,2776.1549999998,100,2,0,-69,31,NA,NA,NA,2,2776.1549999998,5,569,469,4,9,569,1,0
jspsych-experimentscreen,240,1119363,0.0-240.0,NA,NA,NA,NA,NA,NA,NA,NA,NA,NA,orange1,NA,NA,1116316.27,1118385.8150000013,1120730.75,2069.5449999982957,0,Retrieve,1,0,578,6400,80,narrow,orange1,581,450,131,1120730.56,2344.74500000221,10,2,3,29,39,NA,NA,NA,2,2344.74500000221,1,319,219,4,3,319,0,1
jspsych-experimentscreen,241,1128245,0.0-241.0,NA,NA,NA,NA,NA,NA,NA,NA,NA,NA,blue1,NA,NA,1120738.105,1126551.4000000004,1129610.995,5813.2949999999255,1,Zap,1,0,278,19600,140,wide,blue1,402,450,48,1129610.81,3059.41000000155,29,2,0,16,13,NA,NA,NA,2,3059.41000000155,1,498,398,2,7,498,1,0
jspsych-experimentscreen,242,1134137,0.0-242.0,NA,NA,NA,NA,NA,NA,NA,NA,NA,NA,orange1,NA,NA,1129617.675,1131968.1600000004,1135502.95,2350.484999999171,0,Retrieve,1,0,578,6400,80,narrow,orange1,691,450,241,1135502.775,3534.61500000046,97,2,3,-3,100,NA,NA,NA,2,3534.61500000046,4,209,109,6,1,209,0,1
jspsych-experimentscreen,243,1139324,0.0-243.0,NA,NA,NA,NA,NA,NA,NA,NA,NA,NA,orange1,NA,NA,1135511.135,1137740.9050000024,1140690.465,2229.7700000016484,0,Retrieve,1,0,578,6400,80,narrow,orange1,515,450,65,1140690.3,2949.39499999979,17,2,3,18,35,NA,NA,NA,2,2949.39499999979,1,385,285,3,4,385,0,1
jspsych-experimentscreen,244,1145233,0.0-244.0,NA,NA,NA,NA,NA,NA,NA,NA,NA,NA,blue1,NA,NA,1140696.885,1142846.225000001,1146599.33,2149.339999999851,1,Zap,1,0,278,19600,140,wide,blue1,295,450,155,1146599.14,3752.91500000097,100,2,0,-74,26,NA,NA,NA,2,3752.91500000097,5,605,505,5,10,605,1,0
jspsych-experimentscreen,245,1149580,0.0-245.0,NA,NA,NA,NA,NA,NA,NA,NA,NA,NA,orange1,NA,NA,1146606.455,1148985.6550000005,1150945.67,2379.1999999994878,0,Retrieve,1,0,578,6400,80,narrow,orange1,609,450,159,1150945.495,1959.84000000311,19,2,3,33,52,NA,NA,NA,2,1959.84000000311,1,291,191,5,2,291,0,1
jspsych-experimentscreen,246,1153906,0.0-246.0,NA,NA,NA,NA,NA,NA,NA,NA,NA,NA,blue1,NA,NA,1150952.68,1152879.4350000026,1155272.18,1926.7550000005867,1,Zap,1,0,278,19600,140,wide,blue1,302,450,148,1155271.995,2392.56000000029,100,2,0,-83,17,NA,NA,NA,2,2392.56000000029,5,598,498,5,10,598,1,0
jspsych-experimentscreen,247,1158274,0.0-247.0,NA,NA,NA,NA,NA,NA,NA,NA,NA,NA,orange1,NA,NA,1155279.065,1157756.5600000017,1159640.23,2477.4949999991804,0,Retrieve,1,0,578,6400,80,narrow,orange1,446,450,4,1159640.045,1883.48499999847,72,2,3,6,66,NA,NA,NA,2,1883.48499999847,3,454,354,1,6,454,0,1
